"participant","target_duration","distractors_duration_2","distractors_duration_1","response","response_RT","condition","trial"
1,1,0.7,3,0,1.702063071,"distractors",1
1,1,0.3,0.7,1,0.884467494999967,"distractors",2
1,1,0.7,1.5,1,4.41839624199997,"distractors",3
1,1,1.5,0.3,1,1.03471777200002,"distractors",4
1,1,0.7,1.5,0,3.43495675600002,"distractors",5
1,1,0.3,0.7,1,1.16821336199996,"distractors",6
1,1,0.3,0.7,1,0.401720816999955,"distractors",7
1,1,0.3,3,1,0.568225110000071,"distractors",8
1,1,3,0.3,1,0.618444350000004,"distractors",9
1,1,0.7,3,0,0.618099489999963,"distractors",10
1,1,0.3,1.5,1,0.568090852999944,"distractors",11
1,1,0.3,3,1,3.73496398300006,"distractors",12
1,1,3,1.5,1,0.484486819999915,"distractors",13
1,1,3,0.7,0,1.18449171299994,"distractors",14
1,1,0.7,1.5,0,0.718147746,"distractors",15
1,1,3,0.3,0,2.93494984799997,"distractors",16
1,1,0.3,1.5,0,0.450917472000015,"distractors",17
1,1,0.7,1.5,0,1.33429715,"distractors",18
1,1,0.7,3,1,1.284966897,"distractors",19
1,1,0.3,1.5,1,0.384905359000072,"distractors",20
1,1,1.5,0.7,1,0.418521632999955,"distractors",21
1,1,1.5,0.7,1,0.434855814000002,"distractors",22
1,1,0.3,3,1,0.484508552999955,"distractors",23
1,1,0.3,0.7,0,0.567720110999971,"distractors",24
1,1,1.5,0.3,1,0.567402995999942,"distractors",25
1,1,0.7,1.5,0,1.634759895,"distractors",26
1,1,3,1.5,1,1.71810914299999,"distractors",27
1,1,3,1.5,1,0.434351183999979,"distractors",28
1,1,3,0.3,1,1.26693311700001,"distractors",29
1,1,1.5,0.3,1,1.51744894900003,"distractors",30
1,1,0.7,3,0,0.416905670999995,"distractors",31
1,1,0.7,0.3,0,1.71799846700003,"distractors",32
1,1,1.5,3,1,2.18391554999994,"distractors",33
1,1,1.5,0.3,1,0.401263399999948,"distractors",34
1,1,1.5,0.7,1,0.36797650699998,"distractors",35
1,1,1.5,3,0,0.334755997000002,"distractors",36
1,1,0.7,3,0,0.851192120000064,"distractors",37
1,1,0.7,3,1,1.03380916499998,"distractors",38
1,1,1.5,0.3,1,0.334918280000011,"distractors",39
1,1,3,0.7,1,0.367711141000086,"distractors",40
1,1,1.5,3,1,0.517885282000066,"distractors",41
1,1,0.3,1.5,0,1.03468621399998,"distractors",42
1,1,1.5,3,1,0.817515267999966,"distractors",43
1,1,3,0.7,1,0.301672668000037,"distractors",44
1,1,0.7,0.3,0,0.517368620999946,"distractors",45
1,1,0.3,1.5,1,1.28454347799993,"distractors",46
1,1,1.5,0.7,1,0.384800151000036,"distractors",47
1,1,1.5,3,0,0.384212914000045,"distractors",48
1,1,0.7,0.3,1,0.583396638999943,"distractors",49
1,1,3,0.7,1,0.36823779000008,"distractors",50
1,1,3,1.5,0,0.568056436999996,"distractors",51
1,1,0.7,0.3,0,0.783712159999936,"distractors",52
1,1,0.3,3,0,0.300773690000028,"distractors",53
1,1,3,0.3,1,0.46700935299998,"distractors",54
1,1,0.3,0.7,1,1.03459592000002,"distractors",55
1,1,1.5,0.3,1,1.30128439999999,"distractors",56
1,1,1.5,0.7,1,0.300834559000009,"distractors",57
1,1,0.3,3,0,0.334103568000046,"distractors",58
1,1,3,1.5,1,0.368122457999903,"distractors",59
1,1,0.3,0.7,1,0.801227006999966,"distractors",60
1,1,0.3,1.5,0,0.0511488870000676,"distractors",61
1,1,0.7,0.3,0,3.31813787900001,"distractors",62
1,1,1.5,0.7,1,0.40130316800014,"distractors",63
1,1,0.3,3,0,0.400773694999998,"distractors",64
1,1,3,0.3,1,0.568093864000048,"distractors",65
1,1,3,1.5,1,0.951154975999998,"distractors",66
1,1,0.7,1.5,0,0.866920615000026,"distractors",67
1,1,3,0.7,1,0.634741216000066,"distractors",68
1,1,0.7,0.3,0,0.701575077000143,"distractors",69
1,1,3,0.7,1,0.468637371000113,"distractors",70
1,1,1.5,3,1,0.483559457999945,"distractors",71
1,1,3,0.3,1,0.601584328999934,"distractors",72
1,1,0.3,3,0,0.351561661000005,"distractors",73
1,1,0.7,0.3,0,0.633624227000155,"distractors",74
1,1,3,1.5,0,0.434789167999952,"distractors",75
1,1,1.5,3,0,0.651442843000041,"distractors",76
1,1,0.3,0.7,1,0.384833744999924,"distractors",77
1,1,1.5,3,1,0.35150783999984,"distractors",78
1,1,3,0.3,1,0.384653936999939,"distractors",79
1,1,0.7,3,0,0.601205923999942,"distractors",80
1,1,1.5,0.7,1,1.6850270089999,"distractors",81
1,1,3,0.3,1,0.400229344000081,"distractors",82
1,1,3,0.7,1,0.351586265000151,"distractors",83
1,1,0.7,1.5,0,0.451359539999885,"distractors",84
1,1,0.3,3,1,1.05135282599986,"distractors",85
1,1,1.5,0.3,1,3.76818183099999,"distractors",86
1,1,1.5,3,0,1.268308273,"distractors",87
1,1,0.3,3,0,0.484250227000075,"distractors",88
1,1,0.3,3,0,0.551687786999992,"distractors",89
1,1,0.3,3,0,0.934988585000156,"distractors",90
1,1,0.7,3,0,0.418268959999978,"distractors",91
1,1,0.3,0.7,1,0.0510831560000042,"distractors",92
1,1,1.5,0.3,1,0.784819158000118,"distractors",93
1,1,3,0.3,1,0.517576527000074,"distractors",94
1,1,0.3,1.5,1,0.38457365499994,"distractors",95
1,1,0.3,0.7,1,0.718623944000001,"distractors",96
1,1,0.7,3,0,1.38408226000001,"distractors",97
1,1,0.3,1.5,1,1.18433035399994,"distractors",98
1,1,0.7,0.3,0,0.468025035999972,"distractors",99
1,1,1.5,0.7,1,0.518045248000135,"distractors",100
1,1,3,0.7,0,0.501341428999922,"distractors",101
1,1,1.5,0.3,0,0.485039367999889,"distractors",102
1,1,0.3,1.5,1,0.349289593999856,"distractors",103
1,1,3,0.3,1,0.434096230000023,"distractors",104
1,1,0.3,3,1,1.15115063899998,"distractors",105
1,1,1.5,0.7,1,0.418199882999943,"distractors",106
1,1,0.7,0.3,0,0.434474331999809,"distractors",107
1,1,3,1.5,1,0.534811921000028,"distractors",108
1,1,3,0.7,0,0.333614709999893,"distractors",109
1,1,0.7,0.3,1,1.5509312329998,"distractors",110
1,1,0.7,1.5,0,0.632275077000031,"distractors",111
1,1,0.3,0.7,1,0.400709129999996,"distractors",112
1,1,3,0.3,1,1.15134078799997,"distractors",113
1,1,1.5,3,0,0.418324463999852,"distractors",114
1,1,0.3,0.7,1,0.551499585999863,"distractors",115
1,1,3,1.5,0,0.401520217000098,"distractors",116
1,1,0.7,1.5,1,0.734553445000074,"distractors",117
1,1,1.5,0.3,1,0.38429875199995,"distractors",118
1,1,0.7,1.5,0,0.451508576000151,"distractors",119
1,1,1.5,0.3,1,0.433662276999939,"distractors",120
1,1,1.5,0.7,1,0.434318098999938,"distractors",121
1,1,1.5,0.7,1,0.76788056700002,"distractors",122
1,1,3,0.7,1,0.518028637000043,"distractors",123
1,1,1.5,3,0,0.70184078300008,"distractors",124
1,1,1.5,0.3,1,0.618106829999988,"distractors",125
1,1,0.7,0.3,1,0.718277116000081,"distractors",126
1,1,0.7,1.5,0,0.783801349999976,"distractors",127
1,1,3,0.7,1,0.418287132999922,"distractors",128
1,1,3,0.7,1,0.368253130999847,"distractors",129
1,1,3,1.5,0,0.80170686800011,"distractors",130
1,1,0.3,1.5,0,1.05115554500003,"distractors",131
1,1,0.3,1.5,1,0.734631619999845,"distractors",132
1,1,3,1.5,1,0.50143383600016,"distractors",133
1,1,0.7,0.3,0,0.385005467999918,"distractors",134
1,1,3,0.3,0,0.468329780999966,"distractors",135
1,1,1.5,3,1,0.534508178999886,"distractors",136
1,1,0.3,0.7,0,0.418272032999994,"distractors",137
1,1,0.3,1.5,1,0.518347789000018,"distractors",138
1,1,0.7,1.5,0,0.484762316000115,"distractors",139
1,1,3,1.5,1,0.484590556000057,"distractors",140
1,1,0.7,3,0,0.567453305000072,"distractors",141
1,1,0.7,3,0,0.368350309000107,"distractors",142
1,1,1.5,0.7,1,0.418261869000162,"distractors",143
1,1,0.7,3,0,0.368238290000136,"distractors",144
1,1,0.3,3,0,0.318341192999924,"distractors",145
1,1,0.3,0.7,1,0.434580673000028,"distractors",146
1,1,0.3,0.7,1,0.601220530000091,"distractors",147
1,1,1.5,0.7,1,0.468407897999896,"distractors",148
1,1,3,1.5,0,0.551250397000103,"distractors",149
1,1,0.7,1.5,1,0.867144827999937,"distractors",150
1,1,0.7,1.5,0,0.333983499999931,"distractors",151
1,1,0.3,1.5,0,1.18283147199986,"distractors",152
1,1,1.5,0.7,1,0.384822319000023,"distractors",153
1,1,1.5,0.3,0,0.468182684999874,"distractors",154
1,1,1.5,0.3,1,0.40016707299992,"distractors",155
1,1,3,1.5,0,0.568297402000098,"distractors",156
1,1,0.7,3,0,0.366888139999901,"distractors",157
1,1,1.5,3,1,0.501618012000108,"distractors",158
1,1,1.5,3,1,0.851411670999823,"distractors",159
1,1,1.5,0.3,0,0.384495717000163,"distractors",160
1,1,1.5,3,1,0.38493574999984,"distractors",161
1,1,0.7,0.3,0,0.367733217000023,"distractors",162
1,1,0.3,1.5,0,1.00184986099998,"distractors",163
1,1,3,0.3,1,0.434797345999868,"distractors",164
1,1,0.3,3,0,0.567319248000103,"distractors",165
1,1,3,0.7,0,0.484802191999961,"distractors",166
1,1,0.3,3,1,0.434796227999868,"distractors",167
1,1,0.7,0.3,0,0.368051705000198,"distractors",168
1,1,0.7,0.3,0,0.484830991000081,"distractors",169
1,1,3,0.3,1,0.401335087999996,"distractors",170
1,1,0.7,1.5,0,0.467559101999996,"distractors",171
1,1,1.5,0.7,1,0.551489704000005,"distractors",172
1,1,0.3,3,0,2.20156530200006,"distractors",173
1,1,0.7,1.5,1,0.784835939000004,"distractors",174
1,1,0.7,0.3,0,0.517112440999881,"distractors",175
1,1,0.7,3,0,1.85144469400007,"distractors",176
1,1,1.5,0.3,1,0.434729111000024,"distractors",177
1,1,1.5,3,0,0.38499958400007,"distractors",178
1,1,0.7,0.3,0,0.384708791999856,"distractors",179
1,1,3,0.7,1,0.383792540000059,"distractors",180
1,1,0.3,0.7,1,0.51776901900007,"distractors",181
1,1,1.5,3,1,0.368215149999969,"distractors",182
1,1,0.7,1.5,0,0.584687558000041,"distractors",183
1,1,0.3,0.7,1,0.451544279000018,"distractors",184
1,1,0.3,3,0,0.451360396999917,"distractors",185
1,1,3,0.3,0,0.434587900999986,"distractors",186
1,1,0.7,3,0,0.401359600999967,"distractors",187
1,1,1.5,0.3,1,0.73153638000008,"distractors",188
1,1,1.5,0.7,1,0.518160927000054,"distractors",189
1,1,3,0.7,0,0.435016809999979,"distractors",190
1,1,3,1.5,1,0.451650405000009,"distractors",191
1,1,3,1.5,1,0.234903756000222,"distractors",192
1,1,0.3,1.5,0,0.868260789000033,"distractors",193
1,1,0.3,1.5,0,0.468253983000068,"distractors",194
1,1,0.3,1.5,1,0.301307842000142,"distractors",195
1,1,3,0.7,1,0.801380125000151,"distractors",196
1,1,1.5,0.3,1,0.551941296999985,"distractors",197
1,1,3,1.5,0,0.367552889000081,"distractors",198
1,1,0.3,0.7,0,0.751518128000043,"distractors",199
1,1,3,0.7,1,0.501310375999992,"distractors",200
1,1,3,0.3,1,0.400243981000131,"distractors",201
1,1,3,0.7,1,0.534850277999794,"distractors",202
1,1,1.5,0.7,1,0.35095769399959,"distractors",203
1,1,0.7,0.3,0,0.384254433000024,"distractors",204
1,1,0.3,1.5,0,0.434656891000031,"distractors",205
1,1,1.5,3,0,0.651702100999955,"distractors",206
1,1,0.3,3,0,0.41701788599994,"distractors",207
1,1,0.7,3,0,0.384553128999869,"distractors",208
1,1,3,0.3,1,0.467500352000116,"distractors",209
1,1,3,1.5,1,1.0502173609998,"distractors",210
1,1,0.7,3,0,0.35137151400022,"distractors",211
1,1,1.5,0.7,0,0.334958756000105,"distractors",212
1,1,0.7,1.5,1,0.467438748999939,"distractors",213
1,1,0.3,0.7,0,0.98492400799978,"distractors",214
1,1,0.7,3,0,0.351258770000186,"distractors",215
1,1,3,0.3,0,0.534394719999909,"distractors",216
1,1,3,0.7,1,0.400069526999687,"distractors",217
1,1,0.3,3,0,0.432749852000143,"distractors",218
1,1,0.3,3,0,0.384879334999823,"distractors",219
1,1,0.7,0.3,0,1.13369310200005,"distractors",220
1,1,0.3,0.7,1,0.768206878000001,"distractors",221
1,1,0.3,1.5,1,0.567123475000244,"distractors",222
1,1,1.5,3,1,0.751424373000191,"distractors",223
1,1,1.5,3,1,0.6182068170001,"distractors",224
1,1,0.3,0.7,0,0.48455671199963,"distractors",225
1,1,1.5,0.3,0,0.501412037000136,"distractors",226
1,1,0.7,0.3,0,0.668199933999858,"distractors",227
1,1,1.5,0.7,1,0.351572587999726,"distractors",228
1,1,0.7,1.5,0,0.30030377500043,"distractors",229
1,1,0.3,0.7,1,0.334374722000121,"distractors",230
1,1,3,1.5,1,0.468167748999804,"distractors",231
1,1,0.3,0.7,0,0.468116614999872,"distractors",232
1,1,3,0.3,1,0.584096031000172,"distractors",233
1,1,0.7,1.5,0,0.350290318000134,"distractors",234
1,1,0.7,0.3,0,0.400667743999747,"distractors",235
1,1,0.3,1.5,0,0.518467527999746,"distractors",236
1,1,3,0.3,1,0.551445116000195,"distractors",237
1,1,0.7,3,0,0.451617109999916,"distractors",238
1,1,3,0.7,1,0.284812873000192,"distractors",239
1,1,3,1.5,0,0.633679389999998,"distractors",240
1,1,0.3,3,1,0.434856788999696,"distractors",241
1,1,1.5,0.7,1,0.51769571199975,"distractors",242
1,1,0.3,1.5,1,0.618293471000015,"distractors",243
1,1,1.5,0.7,1,0.418086829000003,"distractors",244
1,1,3,0.7,1,0.317192246000104,"distractors",245
1,1,3,0.7,1,0.31801580299998,"distractors",246
1,1,0.3,0.7,1,0.651663646000088,"distractors",247
1,1,0.7,3,0,0.367512718999933,"distractors",248
1,1,3,1.5,1,0.485113914000067,"distractors",249
1,1,1.5,0.3,1,0.951289179000014,"distractors",250
1,1,0.7,0.3,0,0.451073532999999,"distractors",251
1,1,0.7,1.5,0,0.484816183000021,"distractors",252
1,1,1.5,0.3,1,0.450826174999747,"distractors",253
1,1,0.7,1.5,0,0.368100460999813,"distractors",254
1,1,0.3,1.5,0,0.534618236999904,"distractors",255
1,1,0.3,3,0,0.368243474999872,"distractors",256
1,1,3,0.3,1,0.835054084000149,"distractors",257
1,1,0.7,0.3,0,3.90191933799997,"distractors",258
1,1,1.5,0.3,1,0.384508787999948,"distractors",259
1,1,1.5,0.7,1,0.584864979000031,"distractors",260
1,1,1.5,3,0,0.417474330000005,"distractors",261
1,1,3,0.3,0,0.73507156200003,"distractors",262
1,1,3,0.7,1,0.385445435999827,"distractors",263
1,1,1.5,0.3,1,0.501014261999899,"distractors",264
1,1,0.7,0.3,0,0.384595463000096,"distractors",265
1,1,0.7,3,0,0.766363141000056,"distractors",266
1,1,3,0.7,1,0.884909258999869,"distractors",267
1,1,0.7,1.5,0,0.901426212999922,"distractors",268
1,1,0.7,1.5,0,0.501532151999982,"distractors",269
1,1,3,1.5,1,3.68447098500019,"distractors",270
1,1,1.5,0.7,1,0.718168731999867,"distractors",271
1,1,3,0.3,1,0.717701261000002,"distractors",272
1,1,0.7,3,0,0.401538771000105,"distractors",273
1,1,0.3,3,0,0.634253640000225,"distractors",274
1,1,0.3,0.7,1,0.518055250999623,"distractors",275
1,1,3,0.3,0,0.817967210000006,"distractors",276
1,1,3,1.5,0,0.385072531999867,"distractors",277
1,1,1.5,3,0,0.318139413999688,"distractors",278
1,1,1.5,3,1,0.351655583999673,"distractors",279
1,1,1.5,0.7,1,0.334119480000027,"distractors",280
1,1,1.5,3,1,4.56810341999972,"distractors",281
1,1,1.5,0.3,1,0.384744083999976,"distractors",282
1,1,0.3,1.5,0,0.434103928999775,"distractors",283
1,1,0.7,3,0,0.485083476,"distractors",284
1,1,0.3,3,0,0.383429176999925,"distractors",285
1,1,0.7,3,0,1.31780816799983,"distractors",286
1,1,3,1.5,1,0.418127920999723,"distractors",287
1,1,0.3,1.5,0,0.434377544000199,"distractors",288
1,1,1.5,0.7,1,0.684743113999957,"distractors",289
1,1,0.7,3,0,0.218141019000086,"distractors",290
1,1,3,1.5,1,0.81806698399987,"distractors",291
1,1,1.5,3,1,0.584845200000018,"distractors",292
1,1,3,1.5,1,0.384610288000204,"distractors",293
1,1,0.3,0.7,1,0.367388355000003,"distractors",294
1,1,0.3,0.7,1,0.301312384000084,"distractors",295
1,1,1.5,3,1,0.45101441099996,"distractors",296
1,1,3,0.7,1,0.417882796000413,"distractors",297
1,1,0.3,3,0,0.368322964000072,"distractors",298
1,1,0.3,3,0,0.534840236000036,"distractors",299
1,1,0.3,3,0,0.434885582999868,"distractors",300
1,1,1.5,0.3,1,0.664869285999885,"distractors",301
1,1,0.7,3,0,0.333687730999827,"distractors",302
1,1,0.3,0.7,1,0.33489600699977,"distractors",303
1,1,0.3,3,0,0.585830050999903,"distractors",304
1,1,1.5,0.7,1,0.71827526800007,"distractors",305
1,1,0.3,1.5,0,2.28473356099994,"distractors",306
1,1,1.5,0.7,1,0.467595028999767,"distractors",307
1,1,0.3,1.5,0,0.384868119000203,"distractors",308
1,1,1.5,0.7,1,0.834891096999854,"distractors",309
1,1,1.5,0.3,1,0.434924841999873,"distractors",310
1,1,0.7,1.5,0,0.51803647800034,"distractors",311
1,1,0.3,0.7,0,0.617731710000044,"distractors",312
1,1,0.7,3,0,0.384753566000199,"distractors",313
1,1,0.7,1.5,0,1.0492864580001,"distractors",314
1,1,0.3,3,0,0.501437391999843,"distractors",315
1,1,0.7,0.3,0,1.06823237200024,"distractors",316
1,1,1.5,0.3,1,0.434748681000201,"distractors",317
1,1,3,1.5,1,0.48448233199997,"distractors",318
1,1,3,0.7,1,0.634819010999763,"distractors",319
1,1,1.5,3,1,1.35169713800042,"distractors",320
1,1,3,1.5,0,0.451297820000036,"distractors",321
1,1,3,0.3,0,3.01824774600027,"distractors",322
1,1,0.7,0.3,0,2.20149990299979,"distractors",323
1,1,0.7,0.3,0,0.551593317000425,"distractors",324
1,1,3,0.7,1,1.63477757500004,"distractors",325
1,1,3,1.5,0,0.584541125999749,"distractors",326
1,1,3,1.5,0,0.43448280299981,"distractors",327
1,1,0.3,0.7,1,0.301387053999861,"distractors",328
1,1,1.5,0.3,1,4.40193760600005,"distractors",329
1,1,0.7,0.3,1,0.667882691000159,"distractors",330
1,1,3,0.3,0,1.551604623,"distractors",331
1,1,1.5,0.7,1,0.418098889000248,"distractors",332
1,1,0.7,1.5,0,1.13505733200009,"distractors",333
1,1,0.3,1.5,1,0.484919567999896,"distractors",334
1,1,1.5,3,1,1.88491814500003,"distractors",335
1,1,0.3,1.5,0,0.401245355000356,"distractors",336
1,1,3,0.3,1,3.45102743500001,"distractors",337
1,1,1.5,0.7,1,0.450298323999959,"distractors",338
1,1,1.5,3,0,0.717279462000079,"distractors",339
1,1,0.7,1.5,0,1.73445495900023,"distractors",340
1,1,0.7,3,0,0.716818602999865,"distractors",341
1,1,3,0.7,1,0.41815319699981,"distractors",342
1,1,0.3,3,0,0.701579933000176,"distractors",343
1,1,1.5,3,1,2.63496003399996,"distractors",344
1,1,0.3,1.5,0,0.734671878999961,"distractors",345
1,1,0.7,3,0,0.833690694000325,"distractors",346
1,1,3,0.3,1,0.618296106999878,"distractors",347
1,1,1.5,0.3,1,0.43478375299992,"distractors",348
1,1,0.3,0.7,1,0.867648454999653,"distractors",349
1,1,0.7,1.5,1,0.317722616000083,"distractors",350
1,1,0.7,1.5,0,0.201446608999959,"distractors",351
1,1,0.7,0.3,1,3.28486839300012,"distractors",352
1,1,3,0.3,1,0.684513728999718,"distractors",353
1,1,3,0.7,0,0.567656614000043,"distractors",354
1,1,3,0.3,1,0.618099343999802,"distractors",355
1,1,1.5,0.3,1,0.384807282000111,"distractors",356
1,1,3,0.7,1,1.03487378299997,"distractors",357
1,1,0.7,0.3,0,0.701416048999818,"distractors",358
1,1,0.3,1.5,0,0.467665916999977,"distractors",359
1,1,0.7,3,0,0.668142250000074,"distractors",360
2,1,3,0.3,0,1.38812,"distractors",1
2,1,3,0.7,1,0.311385,"distractors",2
2,1,0.3,1.5,0,0.63433,"distractors",3
2,1,0.7,1.5,0,0.70895,"distractors",4
2,1,0.7,3,0,1.97634,"distractors",5
2,1,0.7,0.3,0,0.88061,"distractors",6
2,1,1.5,3,1,0.29011,"distractors",7
2,1,1.5,0.3,1,0.65205,"distractors",8
2,1,1.5,0.7,0,0.15173,"distractors",9
2,1,0.3,0.7,0,0.217945,"distractors",10
2,1,0.3,3,0,1.343135,"distractors",11
2,1,3,1.5,0,0.288175,"distractors",12
2,1,0.7,1.5,0,0.53033,"distractors",13
2,1,0.7,3,1,0.5649,"distractors",14
2,1,0.3,0.7,0,0.27045,"distractors",15
2,1,1.5,0.3,1,0.272955,"distractors",16
2,1,1.5,3,0,0.25983,"distractors",17
2,1,1.5,0.7,0,2.367545,"distractors",18
2,1,3,0.7,0,1.231645,"distractors",19
2,1,0.3,1.5,0,0.37177,"distractors",20
2,1,3,1.5,0,0.138515,"distractors",21
2,1,3,0.3,1,0.117905,"distractors",22
2,1,0.7,0.3,0,0.95107,"distractors",23
2,1,0.3,3,0,3.15152,"distractors",24
2,1,0.3,3,1,4.26762,"distractors",25
2,1,0.3,1.5,0,1.844225,"distractors",26
2,1,0.7,0.3,0,0.48408,"distractors",27
2,1,0.3,0.7,1,14.45355,"distractors",28
2,1,3,0.7,0,0.267965,"distractors",29
2,1,3,0.3,0,0.35947,"distractors",30
2,1,1.5,0.3,1,0.359475,"distractors",31
2,1,1.5,0.7,0,2.159025,"distractors",32
2,1,1.5,3,1,2.2618,"distractors",33
2,1,3,1.5,1,1.505235,"distractors",34
2,1,0.7,3,0,0.332455,"distractors",35
2,1,0.7,1.5,0,1.189525,"distractors",36
2,1,1.5,0.7,1,0.969905,"distractors",37
2,1,0.3,3,0,10.77968,"distractors",38
2,1,0.3,1.5,0,3.546415,"distractors",39
2,1,3,0.3,0,0.4043,"distractors",40
2,1,0.7,3,0,1.043605,"distractors",41
2,1,1.5,3,0,1.71878,"distractors",42
2,1,0.3,0.7,1,1.834185,"distractors",43
2,1,0.7,0.3,0,0.344305,"distractors",44
2,1,1.5,0.3,1,1.343645,"distractors",45
2,1,3,0.7,1,0.56208,"distractors",46
2,1,0.7,1.5,0,1.77737,"distractors",47
2,1,3,1.5,0,0.28028,"distractors",48
2,1,0.3,0.7,0,0.54907,"distractors",49
2,1,0.7,0.3,0,0.310345,"distractors",50
2,1,3,0.7,0,1.384585,"distractors",51
2,1,0.3,3,0,0.08982,"distractors",52
2,1,3,0.3,1,0.29376,"distractors",53
2,1,1.5,0.3,1,0.303175,"distractors",54
2,1,0.7,3,0,0.290935,"distractors",55
2,1,1.5,0.7,1,0.27718,"distractors",56
2,1,0.3,1.5,0,0.239675,"distractors",57
2,1,1.5,3,0,0.763845,"distractors",58
2,1,3,1.5,1,0.24291,"distractors",59
2,1,0.7,1.5,0,0.54302,"distractors",60
2,1,0.3,3,0,0.449065,"distractors",61
2,1,0.7,1.5,0,0.52482,"distractors",62
2,1,0.7,3,0,0.399185,"distractors",63
2,1,3,1.5,1,0.16551,"distractors",64
2,1,1.5,3,0,0.72487,"distractors",65
2,1,0.3,1.5,0,0.220715,"distractors",66
2,1,1.5,0.3,1,1.5608,"distractors",67
2,1,0.3,0.7,1,0.523295,"distractors",68
2,1,3,0.3,0,0.26025,"distractors",69
2,1,0.7,0.3,0,0.37074,"distractors",70
2,1,1.5,0.7,1,0.280965,"distractors",71
2,1,3,0.7,1,0.22239,"distractors",72
2,1,1.5,0.3,1,0.230695,"distractors",73
2,1,3,0.7,0,41.28616,"distractors",74
2,1,0.7,1.5,0,0.00788,"distractors",75
2,1,1.5,3,1,0.12592,"distractors",76
2,1,3,1.5,1,0.42216,"distractors",77
2,1,0.7,0.3,1,0.893165,"distractors",78
2,1,1.5,0.7,0,0.39072,"distractors",79
2,1,0.3,3,0,1.23872,"distractors",80
2,1,3,0.3,1,4.748345,"distractors",81
2,1,0.7,3,1,1.734565,"distractors",82
2,1,0.3,1.5,0,7.510285,"distractors",83
2,1,0.3,0.7,1,1.113805,"distractors",84
2,1,1.5,0.3,1,0.301275,"distractors",85
2,1,0.3,0.7,0,0.262385,"distractors",86
2,1,0.3,1.5,0,0.513975,"distractors",87
2,1,3,1.5,0,0.258505,"distractors",88
2,1,3,0.3,1,0.351865,"distractors",89
2,1,3,0.7,1,0.545425,"distractors",90
2,1,0.7,3,0,1.507595,"distractors",91
2,1,1.5,3,0,6.91785,"distractors",92
2,1,1.5,0.7,1,11.029015,"distractors",93
2,1,0.7,0.3,1,0.323825,"distractors",94
2,1,0.7,1.5,0,1.68439,"distractors",95
2,1,0.3,3,0,0.6645,"distractors",96
2,1,3,1.5,0,0.347885,"distractors",97
2,1,0.3,1.5,0,41.059385,"distractors",98
2,1,3,0.7,1,2.47292,"distractors",99
2,1,0.3,3,0,0.734235,"distractors",100
2,1,0.7,0.3,1,0.407175,"distractors",101
2,1,0.3,0.7,0,0.4068,"distractors",102
2,1,1.5,0.3,1,1.227065,"distractors",103
2,1,0.7,1.5,1,0.76065,"distractors",104
2,1,0.7,3,0,0.56163,"distractors",105
2,1,3,0.3,1,0.315175,"distractors",106
2,1,1.5,0.7,0,0.27637,"distractors",107
2,1,1.5,3,0,0.41527,"distractors",108
2,1,0.7,1.5,0,0.475855,"distractors",109
2,1,1.5,0.7,1,0.455105,"distractors",110
2,1,3,1.5,1,0.17022,"distractors",111
2,1,0.7,0.3,1,0.2844,"distractors",112
2,1,1.5,3,0,0.32467,"distractors",113
2,1,0.3,0.7,1,36.63176,"distractors",114
2,1,0.7,3,0,0.4297,"distractors",115
2,1,1.5,0.3,1,0.298865,"distractors",116
2,1,0.3,1.5,0,0.340305,"distractors",117
2,1,3,0.3,1,0.31022,"distractors",118
2,1,3,0.7,1,0.257245,"distractors",119
2,1,0.3,3,0,0.35118,"distractors",120
2,1,1.5,0.7,1,1.61419,"distractors",121
2,1,1.5,0.3,1,14.23529,"distractors",122
2,1,0.7,1.5,0,0.662945,"distractors",123
2,1,0.3,1.5,0,2.290895,"distractors",124
2,1,3,0.7,1,3.7745,"distractors",125
2,1,0.3,3,0,0.655145,"distractors",126
2,1,1.5,3,0,1.80164,"distractors",127
2,1,3,1.5,1,0.39193,"distractors",128
2,1,0.3,0.7,0,1.735175,"distractors",129
2,1,3,0.3,1,0.28978,"distractors",130
2,1,0.7,3,0,0.277545,"distractors",131
2,1,0.7,0.3,1,0.082585,"distractors",132
2,1,0.7,1.5,0,1.11743,"distractors",133
2,1,0.3,3,0,47.21561,"distractors",134
2,1,1.5,0.7,1,7.652005,"distractors",135
2,1,1.5,0.3,1,0.319285,"distractors",136
2,1,3,0.7,1,0.346405,"distractors",137
2,1,3,1.5,1,10.60983,"distractors",138
2,1,0.7,3,0,0.697275,"distractors",139
2,1,0.3,1.5,0,14.779515,"distractors",140
2,1,0.7,0.3,1,6.043675,"distractors",141
2,1,1.5,3,0,1.927755,"distractors",142
2,1,3,0.3,0,1.32224,"distractors",143
2,1,0.3,0.7,0,1.565255,"distractors",144
2,1,0.3,3,0,2.045265,"distractors",145
2,1,1.5,3,0,1.674355,"distractors",146
2,1,0.7,0.3,1,1.53445,"distractors",147
2,1,3,0.3,0,0.20122,"distractors",148
2,1,0.7,1.5,0,0.0294,"distractors",149
2,1,0.3,0.7,0,1.14897,"distractors",150
2,1,3,0.7,1,0.670535,"distractors",151
2,1,1.5,0.7,1,0.930245,"distractors",152
2,1,3,1.5,1,79.09807,"distractors",153
2,1,0.3,1.5,0,12.35566,"distractors",154
2,1,1.5,0.3,1,1.56273,"distractors",155
2,1,0.7,3,0,1.24381,"distractors",156
2,1,1.5,0.7,0,39.15981,"distractors",157
2,1,1.5,3,0,2.23852,"distractors",158
2,1,3,0.7,1,0.645005,"distractors",159
2,1,0.3,1.5,0,2.688635,"distractors",160
2,1,0.3,0.7,0,2.934355,"distractors",161
2,1,1.5,0.3,1,2.95593,"distractors",162
2,1,0.7,1.5,0,0.28485,"distractors",163
2,1,3,0.3,1,0.334965,"distractors",164
2,1,0.3,3,0,0.289895,"distractors",165
2,1,0.7,0.3,0,1.061575,"distractors",166
2,1,3,1.5,0,0.272925,"distractors",167
2,1,0.7,3,0,0.33439,"distractors",168
2,1,3,0.7,1,0.37522,"distractors",169
2,1,0.3,3,0,4.59187,"distractors",170
2,1,0.3,1.5,0,5.48612,"distractors",171
2,1,3,1.5,0,6.20838,"distractors",172
2,1,1.5,3,1,11.24541,"distractors",173
2,1,0.3,0.7,0,0.61152,"distractors",174
2,1,0.7,1.5,0,1.896075,"distractors",175
2,1,3,0.3,1,10.228435,"distractors",176
2,1,1.5,0.7,1,0.42501,"distractors",177
2,1,1.5,0.3,0,4.27762,"distractors",178
2,1,0.7,3,1,44.002135,"distractors",179
2,1,0.7,0.3,0,1.43411,"distractors",180
2,1,0.7,3,0,0.30319,"distractors",181
2,1,1.5,0.7,1,0.336305,"distractors",182
2,1,1.5,3,0,0.312535,"distractors",183
2,1,3,0.3,1,0.41162,"distractors",184
2,1,0.3,3,0,0.187205,"distractors",185
2,1,0.7,1.5,0,1.79298,"distractors",186
2,1,3,1.5,0,11.67904,"distractors",187
2,1,1.5,0.3,1,0.418185,"distractors",188
2,1,0.3,0.7,0,5.34389,"distractors",189
2,1,0.7,0.3,1,0.68967,"distractors",190
2,1,3,0.7,1,0.35074,"distractors",191
2,1,0.3,1.5,0,0.397145,"distractors",192
2,1,0.3,1.5,0,0.29138,"distractors",193
2,1,1.5,3,1,0.988535,"distractors",194
2,1,0.7,1.5,1,0.059255,"distractors",195
2,1,1.5,0.7,0,0.22961,"distractors",196
2,1,3,0.3,1,0.109265,"distractors",197
2,1,0.7,0.3,0,1.503875,"distractors",198
2,1,0.3,0.7,0,0.435225,"distractors",199
2,1,0.3,3,0,0.93726,"distractors",200
2,1,1.5,0.3,1,0.68145,"distractors",201
2,1,0.7,3,0,0.86971,"distractors",202
2,1,3,0.7,1,0.03437,"distractors",203
2,1,3,1.5,0,0.55046,"distractors",204
2,1,1.5,3,1,1.08565,"distractors",205
2,1,1.5,0.7,1,0.38456,"distractors",206
2,1,3,0.7,1,0.40803,"distractors",207
2,1,0.3,1.5,0,7.477455,"distractors",208
2,1,0.3,3,0,0.18515,"distractors",209
2,1,0.7,0.3,1,0.314015,"distractors",210
2,1,3,0.3,1,0.2684,"distractors",211
2,1,1.5,0.3,1,0.7681,"distractors",212
2,1,3,1.5,0,0.246105,"distractors",213
2,1,0.7,1.5,0,0.41022,"distractors",214
2,1,0.7,3,0,0.968855,"distractors",215
2,1,0.3,0.7,0,25.01045,"distractors",216
2,1,0.3,0.7,0,0.295515,"distractors",217
2,1,1.5,3,0,0.402385,"distractors",218
2,1,3,1.5,1,0.503625,"distractors",219
2,1,0.3,3,0,0.267945,"distractors",220
2,1,0.3,1.5,0,0.125165,"distractors",221
2,1,0.7,0.3,0,1.63257,"distractors",222
2,1,1.5,0.7,1,0.56448,"distractors",223
2,1,3,0.7,1,0.45438,"distractors",224
2,1,1.5,0.3,1,0.98499,"distractors",225
2,1,0.7,1.5,0,1.167815,"distractors",226
2,1,3,0.3,0,4.00119,"distractors",227
2,1,0.7,3,0,0.2875,"distractors",228
2,1,0.7,0.3,1,0.323655,"distractors",229
2,1,3,0.3,1,0.293755,"distractors",230
2,1,0.7,1.5,0,0.27209,"distractors",231
2,1,1.5,3,0,1.346705,"distractors",232
2,1,0.7,3,0,0.29327,"distractors",233
2,1,0.3,3,0,0.032565,"distractors",234
2,1,3,1.5,0,0.165155,"distractors",235
2,1,0.3,1.5,0,0.132585,"distractors",236
2,1,1.5,0.7,1,0.181555,"distractors",237
2,1,1.5,0.3,1,0.25144,"distractors",238
2,1,3,0.7,1,0.10497,"distractors",239
2,1,0.3,0.7,0,0.11729,"distractors",240
2,1,0.3,3,0,0.35108,"distractors",241
2,1,0.3,0.7,1,0.23249,"distractors",242
2,1,3,0.7,1,0.33447,"distractors",243
2,1,3,1.5,0,0.262805,"distractors",244
2,1,0.3,1.5,0,0.41029,"distractors",245
2,1,3,0.3,1,0.44895,"distractors",246
2,1,0.7,3,1,0.255385,"distractors",247
2,1,1.5,0.3,0,1.738165,"distractors",248
2,1,1.5,3,0,1.073855,"distractors",249
2,1,0.7,1.5,1,1.029205,"distractors",250
2,1,1.5,0.7,0,0.34605,"distractors",251
2,1,0.7,0.3,0,0.33172,"distractors",252
2,1,1.5,0.3,0,0.28427,"distractors",253
2,1,0.7,1.5,0,0.582265,"distractors",254
2,1,3,0.3,1,0.3591,"distractors",255
2,1,1.5,0.7,1,0.101875,"distractors",256
2,1,3,1.5,0,0.239865,"distractors",257
2,1,0.7,0.3,0,0.26934,"distractors",258
2,1,0.7,3,0,0.26756,"distractors",259
2,1,1.5,3,0,0.26119,"distractors",260
2,1,0.3,1.5,0,1.16773,"distractors",261
2,1,3,0.7,1,1.37696,"distractors",262
2,1,0.3,0.7,0,0.353215,"distractors",263
2,1,0.3,3,0,0.81809,"distractors",264
2,1,1.5,0.3,1,1.20816,"distractors",265
2,1,3,0.7,1,0.423185,"distractors",266
2,1,3,1.5,1,0.202775,"distractors",267
2,1,0.3,3,0,0.065775,"distractors",268
2,1,0.7,0.3,1,0.20863,"distractors",269
2,1,0.3,1.5,0,0.245655,"distractors",270
2,1,0.7,1.5,0,0.281575,"distractors",271
2,1,1.5,0.7,1,0.45122,"distractors",272
2,1,0.3,0.7,1,0.281445,"distractors",273
2,1,0.7,3,0,0.421965,"distractors",274
2,1,1.5,3,0,0.52284,"distractors",275
2,1,3,0.3,1,0.317515,"distractors",276
2,1,3,0.7,0,0.527485,"distractors",277
2,1,3,1.5,0,0.08794,"distractors",278
2,1,3,0.3,1,0.443905,"distractors",279
2,1,1.5,0.3,1,0.201285,"distractors",280
2,1,0.3,1.5,0,0.173365,"distractors",281
2,1,0.7,0.3,1,0.18976,"distractors",282
2,1,0.7,1.5,0,0.3322,"distractors",283
2,1,0.7,3,0,0.301715,"distractors",284
2,1,1.5,3,0,0.631055,"distractors",285
2,1,1.5,0.7,1,0.292195,"distractors",286
2,1,0.3,3,0,6.560545,"distractors",287
2,1,0.3,0.7,1,0.297355,"distractors",288
2,1,1.5,0.3,1,0.09238,"distractors",289
2,1,0.3,1.5,0,0.02367,"distractors",290
2,1,3,0.7,0,0.726065,"distractors",291
2,1,1.5,0.7,1,1.110695,"distractors",292
2,1,1.5,3,0,0.60091,"distractors",293
2,1,0.3,0.7,1,0.84775,"distractors",294
2,1,3,0.3,1,0.500925,"distractors",295
2,1,0.7,3,1,0.160985,"distractors",296
2,1,0.7,0.3,1,0.75383,"distractors",297
2,1,0.3,3,0,0.259325,"distractors",298
2,1,3,1.5,0,0.397855,"distractors",299
2,1,0.7,1.5,0,0.444265,"distractors",300
2,1,3,0.7,1,0.76245,"distractors",301
2,1,1.5,0.7,1,0.345575,"distractors",302
2,1,0.3,0.7,0,0.50737,"distractors",303
2,1,3,1.5,1,34.2932,"distractors",304
2,1,0.7,3,0,0.568115,"distractors",305
2,1,0.7,1.5,1,0.208085,"distractors",306
2,1,1.5,0.3,0,1.267925,"distractors",307
2,1,0.3,1.5,0,0.19133,"distractors",308
2,1,0.3,3,0,0.111015,"distractors",309
2,1,3,0.3,1,0.322625,"distractors",310
2,1,1.5,3,0,0.15464,"distractors",311
2,1,0.7,0.3,1,0.24401,"distractors",312
2,1,0.7,1.5,0,0.303915,"distractors",313
2,1,1.5,3,1,0.377935,"distractors",314
2,1,1.5,0.3,1,0.176235,"distractors",315
2,1,0.3,3,0,0.04903,"distractors",316
2,1,0.3,0.7,0,0.26274,"distractors",317
2,1,0.7,3,0,0.22817,"distractors",318
2,1,3,0.7,1,0.22673,"distractors",319
2,1,1.5,0.7,0,0.207485,"distractors",320
2,1,0.7,0.3,1,0.117815,"distractors",321
2,1,0.3,1.5,0,0.09537,"distractors",322
2,1,3,0.3,1,0.275095,"distractors",323
2,1,3,1.5,0,1.751105,"distractors",324
2,1,3,0.7,1,0.214755,"distractors",325
2,1,0.7,3,0,0.61425,"distractors",326
2,1,0.3,3,0,0.974305,"distractors",327
2,1,0.3,0.7,1,0.094805,"distractors",328
2,1,1.5,0.7,1,2.42402,"distractors",329
2,1,0.3,1.5,1,0.491755,"distractors",330
2,1,1.5,3,0,0.54299,"distractors",331
2,1,0.7,1.5,0,0.318525,"distractors",332
2,1,1.5,0.3,0,1.302955,"distractors",333
2,1,3,0.3,1,0.786805,"distractors",334
2,1,0.7,0.3,0,0.08276,"distractors",335
2,1,3,1.5,1,0.325915,"distractors",336
2,1,0.3,3,0,0.056035,"distractors",337
2,1,1.5,0.3,1,0.30708,"distractors",338
2,1,0.3,0.7,1,1.18411,"distractors",339
2,1,0.3,1.5,1,0.292365,"distractors",340
2,1,1.5,3,1,0.04642,"distractors",341
2,1,0.7,1.5,0,0.300925,"distractors",342
2,1,3,0.7,1,0.077025,"distractors",343
2,1,1.5,0.7,1,0.12042,"distractors",344
2,1,3,1.5,1,0.87285,"distractors",345
2,1,3,0.3,1,0.134325,"distractors",346
2,1,0.7,0.3,0,0.15929,"distractors",347
2,1,0.7,3,0,0.264765,"distractors",348
2,1,0.7,1.5,0,0.05154,"distractors",349
2,1,0.3,3,0,2.6095,"distractors",350
2,1,3,1.5,1,0.230665,"distractors",351
2,1,1.5,0.7,1,0.155185,"distractors",352
2,1,3,0.3,1,0.3243,"distractors",353
2,1,0.3,0.7,0,0.134885,"distractors",354
2,1,0.7,0.3,0,0.344665,"distractors",355
2,1,0.7,3,0,0.475185,"distractors",356
2,1,1.5,0.3,0,1.77359,"distractors",357
2,1,0.3,1.5,1,0.84403,"distractors",358
2,1,1.5,3,1,0.208035,"distractors",359
2,1,3,0.7,0,0.295705,"distractors",360
3,1,1.5,0.3,0,0.284827626999913,"distractors",1
3,1,0.7,3,0,0.318170890000033,"distractors",2
3,1,0.7,0.3,0,0.317763646999992,"distractors",3
3,1,0.3,0.7,0,0.518135292000011,"distractors",4
3,1,3,0.3,0,0.284482866999952,"distractors",5
3,1,3,1.5,1,0.268338530000051,"distractors",6
3,1,0.7,1.5,1,0.267648407000024,"distractors",7
3,1,0.3,1.5,1,0.450821449000046,"distractors",8
3,1,0.7,0.3,1,0.44942534300003,"distractors",9
3,1,1.5,0.3,1,0.351617509999983,"distractors",10
3,1,0.7,3,1,0.318254685999932,"distractors",11
3,1,0.3,3,0,0.284945430999983,"distractors",12
3,1,1.5,0.7,1,0.383004869000047,"distractors",13
3,1,0.7,0.3,1,0.416966830999968,"distractors",14
3,1,0.3,0.7,1,0.383532762999948,"distractors",15
3,1,1.5,0.7,1,0.351332100000036,"distractors",16
3,1,1.5,3,1,0.284241545999976,"distractors",17
3,1,1.5,0.3,1,0.334876993999956,"distractors",18
3,1,0.7,1.5,0,0.400816291000069,"distractors",19
3,1,3,1.5,0,0.316865980999978,"distractors",20
3,1,3,0.3,1,0.317742532000011,"distractors",21
3,1,1.5,0.7,1,0.301316702000008,"distractors",22
3,1,3,1.5,1,0.400978239999972,"distractors",23
3,1,0.7,1.5,1,0.383741992999944,"distractors",24
3,1,3,0.3,0,0.301479789000041,"distractors",25
3,1,0.7,0.3,0,0.318311171999994,"distractors",26
3,1,0.3,3,0,0.31829922899999,"distractors",27
3,1,1.5,3,1,0.40154859200004,"distractors",28
3,1,0.7,0.3,1,0.401731749999954,"distractors",29
3,1,0.7,3,1,0.449471594999977,"distractors",30
3,1,0.3,3,1,0.284358287999908,"distractors",31
3,1,1.5,0.3,1,0.251414070999999,"distractors",32
3,1,3,0.7,1,0.266788444999975,"distractors",33
3,1,3,0.7,0,0.318104679000044,"distractors",34
3,1,1.5,3,1,0.95167345699997,"distractors",35
3,1,0.3,3,0,0.251429097000027,"distractors",36
3,1,0.3,0.7,0,0.218247489999953,"distractors",37
3,1,0.3,3,0,0.268190938999965,"distractors",38
3,1,0.7,0.3,0,0.618123665999974,"distractors",39
3,1,0.7,3,0,0.468055592000042,"distractors",40
3,1,1.5,0.3,0,1.085044176,"distractors",41
3,1,0.3,1.5,1,0.335014881999996,"distractors",42
3,1,0.7,1.5,1,0.234871281999972,"distractors",43
3,1,3,1.5,1,0.334898059000011,"distractors",44
3,1,3,0.7,0,0.468227715000012,"distractors",45
3,1,0.7,3,1,0.401659990999974,"distractors",46
3,1,0.3,1.5,1,0.384952602999988,"distractors",47
3,1,0.7,1.5,0,0.568238856999983,"distractors",48
3,1,1.5,0.7,1,0.318329167000002,"distractors",49
3,1,3,0.3,0,0.401635532,"distractors",50
3,1,1.5,3,0,0.534892153999976,"distractors",51
3,1,3,0.3,1,0.168076683999971,"distractors",52
3,1,0.3,0.7,1,0.468258762000005,"distractors",53
3,1,3,1.5,0,0.56799993900006,"distractors",54
3,1,0.3,0.7,0,1.20164319399998,"distractors",55
3,1,3,0.7,1,0.401592490999974,"distractors",56
3,1,0.7,3,0,0.451269474000014,"distractors",57
3,1,1.5,0.7,0,0.651192140000035,"distractors",58
3,1,3,0.7,1,0.30141887100001,"distractors",59
3,1,1.5,0.7,1,0.284451038999919,"distractors",60
3,1,1.5,3,1,0.368370644000038,"distractors",61
3,1,0.3,1.5,0,0.351533216999997,"distractors",62
3,1,0.3,0.7,0,0.234043104999955,"distractors",63
3,1,0.3,3,1,0.318134369000063,"distractors",64
3,1,1.5,3,1,0.768268702000114,"distractors",65
3,1,0.3,1.5,0,0.384402094000052,"distractors",66
3,1,0.7,1.5,1,0.317471665000085,"distractors",67
3,1,0.3,1.5,0,0.471332803999985,"distractors",68
3,1,3,1.5,1,0.151553953000075,"distractors",69
3,1,3,0.3,1,0.351056983999797,"distractors",70
3,1,1.5,0.3,1,0.417711687999827,"distractors",71
3,1,3,0.7,1,0.48512996400018,"distractors",72
3,1,0.7,0.3,0,0.450928649000161,"distractors",73
3,1,0.7,1.5,0,0.352806869000005,"distractors",74
3,1,1.5,0.3,0,0.301493031000064,"distractors",75
3,1,0.3,3,1,0.201433941999994,"distractors",76
3,1,1.5,0.3,0,0.368284066000115,"distractors",77
3,1,0.7,3,1,0.283602411000174,"distractors",78
3,1,0.7,3,1,0.26778911700012,"distractors",79
3,1,3,1.5,0,0.184915083000078,"distractors",80
3,1,3,0.3,1,0.167916841000078,"distractors",81
3,1,0.3,3,1,0.234867436999821,"distractors",82
3,1,0.3,0.7,0,0.268241599000021,"distractors",83
3,1,3,0.7,1,0.368312469000102,"distractors",84
3,1,3,0.3,0,0.351497966999887,"distractors",85
3,1,1.5,0.3,0,0.251857955999867,"distractors",86
3,1,0.3,3,1,0.101553519999925,"distractors",87
3,1,0.7,3,1,0.168277211000031,"distractors",88
3,1,1.5,0.7,0,0.301050173000021,"distractors",89
3,1,0.7,3,0,0.268453015999967,"distractors",90
3,1,0.3,3,1,0.316931927000041,"distractors",91
3,1,3,0.7,1,0.234490281000035,"distractors",92
3,1,0.7,1.5,1,0.451170155999989,"distractors",93
3,1,0.3,0.7,0,0.368479433999937,"distractors",94
3,1,3,0.7,1,0.284812644000112,"distractors",95
3,1,1.5,3,0,0.334946282000146,"distractors",96
3,1,3,0.3,1,0.284974892000037,"distractors",97
3,1,0.3,1.5,0,0.63486632199988,"distractors",98
3,1,0.3,1.5,1,0.351284204999956,"distractors",99
3,1,3,1.5,1,0.601528182000038,"distractors",100
3,1,1.5,3,0,0.43361852299995,"distractors",101
3,1,0.7,0.3,1,0.367903971000032,"distractors",102
3,1,1.5,0.3,1,0.33490476299994,"distractors",103
3,1,3,0.3,1,0.301353815000084,"distractors",104
3,1,3,0.3,1,0.351610625000149,"distractors",105
3,1,0.3,0.7,0,0.201124198999878,"distractors",106
3,1,0.7,1.5,1,0.367557241999975,"distractors",107
3,1,0.3,1.5,1,0.301418166000076,"distractors",108
3,1,0.3,1.5,1,0.218224336000048,"distractors",109
3,1,3,1.5,0,0.368161795000105,"distractors",110
3,1,0.7,1.5,1,0.28485847900015,"distractors",111
3,1,3,0.3,1,0.318284678000055,"distractors",112
3,1,1.5,0.7,1,0.250778989000082,"distractors",113
3,1,1.5,3,0,0.284435755000004,"distractors",114
3,1,0.3,0.7,0,0.201628820999986,"distractors",115
3,1,0.7,0.3,1,0.368005923000055,"distractors",116
3,1,0.7,1.5,0,0.43473691600002,"distractors",117
3,1,3,0.7,0,0.134878413000024,"distractors",118
3,1,3,1.5,1,0.401592061999963,"distractors",119
3,1,0.3,3,1,0.784805154999958,"distractors",120
3,1,1.5,0.3,0,0.268238119000216,"distractors",121
3,1,3,1.5,1,0.15122313400002,"distractors",122
3,1,1.5,0.7,0,0.318286905999912,"distractors",123
3,1,1.5,3,1,0.284457017999785,"distractors",124
3,1,3,0.7,0,0.234915594000086,"distractors",125
3,1,0.3,0.7,0,0.319345340999917,"distractors",126
3,1,0.3,1.5,1,0.351507268999967,"distractors",127
3,1,1.5,3,0,0.951486380000006,"distractors",128
3,1,0.7,3,1,0.334938919999786,"distractors",129
3,1,0.3,1.5,0,0.251315899000019,"distractors",130
3,1,1.5,0.7,0,0.30152279899994,"distractors",131
3,1,1.5,0.7,1,0.285903284999904,"distractors",132
3,1,0.7,3,1,0.284312706000037,"distractors",133
3,1,1.5,0.3,1,0.318071574999976,"distractors",134
3,1,3,0.7,0,0.251418488999889,"distractors",135
3,1,3,1.5,0,0.30044977600005,"distractors",136
3,1,1.5,0.7,0,0.368204961000174,"distractors",137
3,1,0.7,1.5,1,0.317038203000038,"distractors",138
3,1,0.3,0.7,1,0.268112191,"distractors",139
3,1,0.7,0.3,1,0.218179221000128,"distractors",140
3,1,1.5,3,1,0.234417226000005,"distractors",141
3,1,0.7,0.3,1,0.31611748399996,"distractors",142
3,1,0.3,3,1,0.218310139999858,"distractors",143
3,1,0.7,0.3,0,0.685045706999972,"distractors",144
3,1,1.5,0.7,0,0.251539445999924,"distractors",145
3,1,0.3,3,0,0.168239469999889,"distractors",146
3,1,1.5,0.3,1,0.184720986999992,"distractors",147
3,1,0.7,0.3,1,0.101734818000068,"distractors",148
3,1,0.7,3,1,0.234791862999828,"distractors",149
3,1,0.3,0.7,0,0.284790245000067,"distractors",150
3,1,3,1.5,1,0.185139162000041,"distractors",151
3,1,0.7,0.3,1,0.334894136000003,"distractors",152
3,1,1.5,0.7,0,0.251277131000052,"distractors",153
3,1,3,1.5,1,0.417518385999983,"distractors",154
3,1,1.5,0.3,0,0.300874596000085,"distractors",155
3,1,3,0.7,0,0.534506959000055,"distractors",156
3,1,0.7,1.5,0,0.350685647999853,"distractors",157
3,1,0.3,0.7,0,0.234854521999978,"distractors",158
3,1,0.3,3,1,0.267786341999908,"distractors",159
3,1,0.3,3,1,0.286255965000009,"distractors",160
3,1,0.7,0.3,1,0.266093170999966,"distractors",161
3,1,1.5,3,1,0.301668650000011,"distractors",162
3,1,1.5,0.3,0,0.218192084999828,"distractors",163
3,1,0.3,0.7,1,0.268259914000055,"distractors",164
3,1,0.7,1.5,1,0.284974675000058,"distractors",165
3,1,3,0.3,1,0.284793533000084,"distractors",166
3,1,3,0.3,0,0.301630475000138,"distractors",167
3,1,1.5,0.7,1,0.268328343999883,"distractors",168
3,1,0.7,3,1,0.284219567000036,"distractors",169
3,1,0.3,0.7,0,0.151639862000138,"distractors",170
3,1,3,1.5,1,0.284607971000014,"distractors",171
3,1,3,0.3,1,0.267883971999936,"distractors",172
3,1,0.3,1.5,0,0.167997779999951,"distractors",173
3,1,3,0.3,1,0.168271367999978,"distractors",174
3,1,0.7,0.3,1,0.368123152999942,"distractors",175
3,1,0.7,3,0,0.251425158999837,"distractors",176
3,1,0.7,0.3,1,0.284820219000039,"distractors",177
3,1,3,0.7,1,0.234842557000093,"distractors",178
3,1,3,1.5,1,0.418095878000258,"distractors",179
3,1,0.7,3,0,0.534963532999882,"distractors",180
3,1,0.7,0.3,0,0.301583994999874,"distractors",181
3,1,1.5,0.3,1,0.266260203000002,"distractors",182
3,1,1.5,0.3,0,0.301623672000005,"distractors",183
3,1,0.3,0.7,1,0.251438055000108,"distractors",184
3,1,3,1.5,0,0.318207538000024,"distractors",185
3,1,0.7,3,1,0.284909678999611,"distractors",186
3,1,3,0.7,1,0.234888343999955,"distractors",187
3,1,0.3,3,1,0.317637258000104,"distractors",188
3,1,1.5,3,1,0.318152690000261,"distractors",189
3,1,0.7,1.5,1,0.318158130000029,"distractors",190
3,1,0.3,1.5,1,0.218211729999894,"distractors",191
3,1,3,0.3,1,0.266993938000269,"distractors",192
3,1,1.5,3,0,0.301103407000028,"distractors",193
3,1,3,0.7,1,0.267978889999995,"distractors",194
3,1,0.7,1.5,0,0.317050438000024,"distractors",195
3,1,3,0.3,1,0.33500538699991,"distractors",196
3,1,1.5,0.7,1,0.318238729999848,"distractors",197
3,1,3,1.5,1,0.268276389000221,"distractors",198
3,1,1.5,3,1,0.401498994000121,"distractors",199
3,1,1.5,0.3,1,0.416795959999945,"distractors",200
3,1,0.3,3,0,0.168171027999961,"distractors",201
3,1,0.7,1.5,1,0.334809041999961,"distractors",202
3,1,1.5,3,0,0.501590515999851,"distractors",203
3,1,0.7,3,1,0.18420101699985,"distractors",204
3,1,0.7,1.5,1,0.400141685000108,"distractors",205
3,1,0.3,0.7,1,0.284781075999945,"distractors",206
3,1,1.5,3,1,0.268251112000144,"distractors",207
3,1,1.5,0.7,1,0.267940279000413,"distractors",208
3,1,0.3,3,1,0.1847433490002,"distractors",209
3,1,1.5,0.7,0,0.201606749999883,"distractors",210
3,1,0.3,1.5,0,0.234037341000203,"distractors",211
3,1,3,0.7,0,0.284778009000092,"distractors",212
3,1,0.3,1.5,1,0.26848482000014,"distractors",213
3,1,3,0.7,1,0.282685442999991,"distractors",214
3,1,0.3,1.5,0,0.284711922000042,"distractors",215
3,1,0.3,1.5,0,0.16820145299971,"distractors",216
3,1,3,0.7,1,0.284641421999822,"distractors",217
3,1,1.5,0.3,0,0.183741701000145,"distractors",218
3,1,0.7,1.5,0,0.384908863999954,"distractors",219
3,1,1.5,0.7,1,0.151495499000248,"distractors",220
3,1,0.3,1.5,1,0.101535821000198,"distractors",221
3,1,0.7,0.3,0,0.284865431000071,"distractors",222
3,1,1.5,0.7,0,0.301518958000088,"distractors",223
3,1,0.7,3,0,0.25112560100024,"distractors",224
3,1,0.3,1.5,1,0.434914959999787,"distractors",225
3,1,3,1.5,0,0.518183357999987,"distractors",226
3,1,0.3,3,1,0.201186739999685,"distractors",227
3,1,1.5,0.3,0,0.284207043999686,"distractors",228
3,1,0.3,0.7,1,0.184337444999983,"distractors",229
3,1,0.3,3,1,0.118176050000329,"distractors",230
3,1,1.5,0.7,0,0.482696407999811,"distractors",231
3,1,0.7,1.5,0,0.367686336000133,"distractors",232
3,1,1.5,3,0,0.16799477099994,"distractors",233
3,1,0.7,0.3,1,0.251565338000091,"distractors",234
3,1,1.5,0.7,1,0.484731144999841,"distractors",235
3,1,0.7,3,0,0.201574401000016,"distractors",236
3,1,1.5,3,0,0.101879246999943,"distractors",237
3,1,3,0.7,1,0.284595686000102,"distractors",238
3,1,0.3,1.5,1,0.418179128999782,"distractors",239
3,1,0.3,1.5,0,0.351654956999937,"distractors",240
3,1,0.7,0.3,1,0.300936815000114,"distractors",241
3,1,0.7,1.5,1,0.184917058999872,"distractors",242
3,1,3,0.3,1,0.151464674000181,"distractors",243
3,1,0.7,0.3,0,0.401639067999895,"distractors",244
3,1,0.3,3,1,0.184522949999973,"distractors",245
3,1,0.3,0.7,1,0.168028601999595,"distractors",246
3,1,3,1.5,1,0.168246160999843,"distractors",247
3,1,1.5,3,1,0.284802608000064,"distractors",248
3,1,1.5,0.7,0,0.168244509000033,"distractors",249
3,1,0.3,0.7,1,0.166974776000188,"distractors",250
3,1,0.3,0.7,0,0.267820857000061,"distractors",251
3,1,0.7,1.5,0,0.184976431999985,"distractors",252
3,1,0.7,3,1,0.201189876000171,"distractors",253
3,1,1.5,0.3,1,0.468552622000061,"distractors",254
3,1,0.3,1.5,1,0.151274860000285,"distractors",255
3,1,0.7,0.3,1,0.268094992999977,"distractors",256
3,1,0.3,0.7,1,0.517379178999818,"distractors",257
3,1,3,0.3,1,0.184151720000045,"distractors",258
3,1,1.5,0.7,0,0.284966219000125,"distractors",259
3,1,3,0.3,1,0.184732850000273,"distractors",260
3,1,1.5,0.3,0,0.300424359999852,"distractors",261
3,1,3,0.7,1,0.267329193000023,"distractors",262
3,1,3,1.5,1,0.250280525999642,"distractors",263
3,1,3,0.3,1,0.351609060999635,"distractors",264
3,1,1.5,0.3,0,0.301163924000321,"distractors",265
3,1,3,0.3,0,0.367601715000092,"distractors",266
3,1,1.5,3,1,0.217871204999938,"distractors",267
3,1,1.5,0.3,0,0.333830569999918,"distractors",268
3,1,0.7,1.5,1,0.201597544999913,"distractors",269
3,1,3,1.5,1,0.401541090999672,"distractors",270
3,1,0.3,3,1,0.184232886000245,"distractors",271
3,1,0.7,0.3,0,0.551128076000168,"distractors",272
3,1,0.3,1.5,1,0.201115488000141,"distractors",273
3,1,3,0.3,1,0.418035652000071,"distractors",274
3,1,1.5,3,0,0.301613924999856,"distractors",275
3,1,3,0.7,1,0.234832924999864,"distractors",276
3,1,3,0.7,1,0.184906339000008,"distractors",277
3,1,0.7,1.5,0,0.384815553999942,"distractors",278
3,1,0.3,0.7,0,0.285104505999698,"distractors",279
3,1,3,0.7,1,0.284724732000086,"distractors",280
3,1,0.7,3,0,0.234599005999826,"distractors",281
3,1,0.7,3,0,0.48267600600002,"distractors",282
3,1,0.3,3,0,0.417181793000054,"distractors",283
3,1,0.3,3,0,0.101254932999836,"distractors",284
3,1,1.5,3,1,0.117352512000252,"distractors",285
3,1,3,1.5,1,0.26812865599959,"distractors",286
3,1,0.7,3,0,0.351664553999854,"distractors",287
3,1,3,1.5,1,0.701337143000273,"distractors",288
3,1,0.3,3,0,0.450138028999845,"distractors",289
3,1,3,0.3,1,0.368179183999928,"distractors",290
3,1,0.3,0.7,0,0.199409973999991,"distractors",291
3,1,0.7,3,0,0.218303312999979,"distractors",292
3,1,0.3,0.7,1,0.184848901999885,"distractors",293
3,1,0.3,3,0,0.151689383000303,"distractors",294
3,1,0.7,1.5,1,0.233850486999927,"distractors",295
3,1,0.7,3,1,0.335175183000047,"distractors",296
3,1,3,0.3,1,0.25147585600007,"distractors",297
3,1,1.5,0.3,1,1.15095134300009,"distractors",298
3,1,1.5,0.3,1,0.301508518999981,"distractors",299
3,1,0.3,1.5,1,1.23374897500025,"distractors",300
3,1,0.7,3,0,0.4842468679999,"distractors",301
3,1,3,0.7,1,0.368015623000247,"distractors",302
3,1,1.5,0.7,1,0.268168979000166,"distractors",303
3,1,1.5,3,0,0.168363797999973,"distractors",304
3,1,1.5,0.7,1,0.168201558999954,"distractors",305
3,1,0.3,3,0,0.201537984999959,"distractors",306
3,1,3,0.7,1,0.420110462000139,"distractors",307
3,1,1.5,3,1,0.234743322999748,"distractors",308
3,1,0.3,0.7,1,0.0678104200001144,"distractors",309
3,1,1.5,0.3,1,0.218190786999912,"distractors",310
3,1,3,1.5,1,0.167088413999863,"distractors",311
3,1,0.3,1.5,0,0.0684304609999344,"distractors",312
3,1,0.7,0.3,1,0.301534488000016,"distractors",313
3,1,3,0.7,0,0.284958256000209,"distractors",314
3,1,3,0.7,1,0.200950112999635,"distractors",315
3,1,0.7,1.5,0,0.301237545999811,"distractors",316
3,1,3,1.5,0,0.334907001999909,"distractors",317
3,1,0.3,1.5,1,0.384872391000044,"distractors",318
3,1,0.7,0.3,1,0.268123312999705,"distractors",319
3,1,3,0.7,0,0.284957310999744,"distractors",320
3,1,1.5,0.7,1,0.234959050000271,"distractors",321
3,1,3,0.3,1,0.219941709000068,"distractors",322
3,1,0.3,3,0,0.133508458000051,"distractors",323
3,1,1.5,0.3,1,0.16853015300012,"distractors",324
3,1,1.5,3,0,0.0678553970001303,"distractors",325
3,1,0.7,3,1,0.251288996000312,"distractors",326
3,1,0.7,1.5,0,0.26813442699995,"distractors",327
3,1,0.3,3,0,0.151586152999698,"distractors",328
3,1,1.5,0.7,1,0.184816810000029,"distractors",329
3,1,1.5,0.3,1,0.151520684999923,"distractors",330
3,1,0.3,1.5,0,0.0515503149999859,"distractors",331
3,1,1.5,3,1,0.0348337569998876,"distractors",332
3,1,0.3,1.5,0,0.116921544999968,"distractors",333
3,1,1.5,0.7,1,0.318069144999754,"distractors",334
3,1,3,1.5,0,0.268307546999949,"distractors",335
3,1,0.7,0.3,0,0.434856888000013,"distractors",336
3,1,0.7,0.3,1,0.284116938999887,"distractors",337
3,1,1.5,3,0,0.184881501999826,"distractors",338
3,1,1.5,3,1,0.284853573999953,"distractors",339
3,1,0.7,1.5,1,0.300465252999857,"distractors",340
3,1,0.3,3,0,1.10148487300012,"distractors",341
3,1,3,1.5,1,0.301532676000079,"distractors",342
3,1,0.3,0.7,0,0.317835088000265,"distractors",343
3,1,3,1.5,1,0.30168705799997,"distractors",344
3,1,1.5,0.7,0,0.267358835999858,"distractors",345
3,1,3,0.7,1,0.284760015999836,"distractors",346
3,1,0.7,0.3,1,0.418334365000192,"distractors",347
3,1,0.3,0.7,0,0.301703416999771,"distractors",348
3,1,0.3,1.5,1,0.317667313000129,"distractors",349
3,1,3,0.3,1,0.28496214200004,"distractors",350
3,1,0.7,1.5,0,0.351516235999952,"distractors",351
3,1,0.7,3,0,0.318386368999654,"distractors",352
3,1,0.7,1.5,0,0.318279017999885,"distractors",353
3,1,0.7,0.3,1,0.251447740000003,"distractors",354
3,1,0.3,0.7,0,0.184446148000006,"distractors",355
3,1,3,0.3,1,0.20157538400008,"distractors",356
3,1,3,1.5,1,0.300879359000191,"distractors",357
3,1,0.7,3,0,0.134162493999611,"distractors",358
3,1,1.5,0.3,1,0.101567757999874,"distractors",359
3,1,3,0.3,1,0.235008095000012,"distractors",360
4,1,0.3,1.5,0,1.28527051899982,"distractors",1
4,1,0.7,1.5,1,0.900715076999859,"distractors",2
4,1,0.3,0.7,0,1.90142329499986,"distractors",3
4,1,3,1.5,0,10.1185773800003,"distractors",4
4,1,0.7,1.5,0,1.36709524999969,"distractors",5
4,1,0.3,1.5,1,0.601299772999937,"distractors",6
4,1,1.5,0.7,0,1.58419446200014,"distractors",7
4,1,0.7,3,0,0.650146521999886,"distractors",8
4,1,1.5,3,1,0.267731921000177,"distractors",9
4,1,0.3,0.7,0,1.30171627599975,"distractors",10
4,1,3,0.3,0,1.43475201199999,"distractors",11
4,1,1.5,0.3,1,0.36780434100001,"distractors",12
4,1,0.3,1.5,0,1.90141462299971,"distractors",13
4,1,3,1.5,0,3.24973673900013,"distractors",14
4,1,0.7,0.3,1,6.21691761300008,"distractors",15
4,1,0.3,1.5,0,0.00162374899991846,"distractors",16
4,1,0.7,0.3,1,0.300318546000199,"distractors",17
4,1,0.7,1.5,0,1.81810110600009,"distractors",18
4,1,0.3,1.5,1,0.284844217999762,"distractors",19
4,1,0.3,0.7,0,0.618266667999706,"distractors",20
4,1,3,0.3,1,0.367821024000023,"distractors",21
4,1,1.5,3,0,0.384716449999814,"distractors",22
4,1,0.7,3,1,0.368319316999987,"distractors",23
4,1,3,0.7,0,1.91708188700022,"distractors",24
4,1,1.5,0.7,0,1.33555403899982,"distractors",25
4,1,0.7,1.5,1,0.318096041999979,"distractors",26
4,1,0.7,1.5,0,0.534517846000199,"distractors",27
4,1,0.7,0.3,1,0.400978051000038,"distractors",28
4,1,3,0.3,1,0.268003401999977,"distractors",29
4,1,0.7,0.3,0,1.9182596859996,"distractors",30
4,1,3,0.3,0,0.434983609000028,"distractors",31
4,1,0.3,3,0,0.368435963000138,"distractors",32
4,1,0.3,3,0,0.434908805999839,"distractors",33
4,1,0.7,0.3,1,0.818282572000044,"distractors",34
4,1,3,0.7,1,0.318193355999938,"distractors",35
4,1,0.7,1.5,1,0.398876349999682,"distractors",36
4,1,3,1.5,1,0.600817732999985,"distractors",37
4,1,3,1.5,0,0.335180346000016,"distractors",38
4,1,3,0.7,0,1.76845522300027,"distractors",39
4,1,0.7,0.3,1,0.368201174000205,"distractors",40
4,1,1.5,0.7,1,0.301501584000107,"distractors",41
4,1,1.5,3,0,0.851466731000073,"distractors",42
4,1,0.3,3,0,1.65152885199996,"distractors",43
4,1,0.3,0.7,1,1.11833383700014,"distractors",44
4,1,3,0.7,1,0.618375760000163,"distractors",45
4,1,0.3,3,0,0.601426940000238,"distractors",46
4,1,1.5,0.3,1,0.468248383000173,"distractors",47
4,1,1.5,0.3,1,0.318255836999924,"distractors",48
4,1,0.3,1.5,0,0.801701150000099,"distractors",49
4,1,1.5,0.3,0,1.55137306300003,"distractors",50
4,1,0.7,3,0,0.768053908999718,"distractors",51
4,1,3,0.3,1,0.651197841000339,"distractors",52
4,1,3,0.7,1,0.384846307999851,"distractors",53
4,1,3,1.5,1,0.334965471000032,"distractors",54
4,1,3,0.7,1,0.316839498999798,"distractors",55
4,1,0.7,3,0,1.78359106399967,"distractors",56
4,1,1.5,0.7,0,1.63437205299942,"distractors",57
4,1,3,1.5,1,0.317818137000359,"distractors",58
4,1,0.3,3,0,0.418507209999916,"distractors",59
4,1,3,0.3,1,0.467365238000639,"distractors",60
4,1,1.5,3,0,1.23452598099993,"distractors",61
4,1,1.5,3,1,0.384185077000438,"distractors",62
4,1,1.5,0.3,1,1.43463851700017,"distractors",63
4,1,0.3,0.7,0,1.23485027200059,"distractors",64
4,1,1.5,0.7,1,0.734900805000507,"distractors",65
4,1,1.5,3,0,0.384952917000192,"distractors",66
4,1,0.7,3,1,0.068132235000121,"distractors",67
4,1,0.3,0.7,0,0.651742087999992,"distractors",68
4,1,0.3,3,0,0.601498108999294,"distractors",69
4,1,1.5,0.3,1,0.168164777000129,"distractors",70
4,1,1.5,0.7,1,0.71834388499974,"distractors",71
4,1,0.7,3,0,0.382824889999938,"distractors",72
4,1,1.5,3,0,0.101531900999362,"distractors",73
4,1,0.3,1.5,1,0.23409937300039,"distractors",74
4,1,1.5,0.7,0,0.318318184999953,"distractors",75
4,1,0.3,1.5,0,0.317806836000273,"distractors",76
4,1,0.3,0.7,1,0.0347448479997183,"distractors",77
4,1,0.7,0.3,1,0.368222262999552,"distractors",78
4,1,1.5,3,0,0.684167807999984,"distractors",79
4,1,3,0.7,1,0.317954492000354,"distractors",80
4,1,0.7,0.3,0,0.384815176999837,"distractors",81
4,1,0.7,1.5,1,0.918137323999872,"distractors",82
4,1,3,0.7,1,0.301336542000172,"distractors",83
4,1,0.7,3,0,0.33440817599967,"distractors",84
4,1,0.7,0.3,1,0.401358032000644,"distractors",85
4,1,0.3,0.7,0,0.416010986999936,"distractors",86
4,1,3,0.7,0,0.284913165000034,"distractors",87
4,1,0.7,1.5,1,0.318066701000134,"distractors",88
4,1,1.5,0.3,1,0.467872215999705,"distractors",89
4,1,0.3,0.7,0,0.367434242999479,"distractors",90
4,1,3,0.3,0,0.251325074999841,"distractors",91
4,1,1.5,0.3,1,0.0516864279998117,"distractors",92
4,1,0.7,0.3,0,0.432019425000362,"distractors",93
4,1,3,0.7,1,0.418166817000383,"distractors",94
4,1,1.5,3,0,0.451587371000642,"distractors",95
4,1,1.5,0.3,0,0.334299508000186,"distractors",96
4,1,1.5,0.7,0,0.351559431999704,"distractors",97
4,1,0.3,3,0,0.334851298999638,"distractors",98
4,1,3,0.3,1,0.55043988000034,"distractors",99
4,1,1.5,0.3,1,0.368301337000048,"distractors",100
4,1,1.5,3,0,0.534949551999489,"distractors",101
4,1,0.3,3,1,0.784796615999767,"distractors",102
4,1,0.7,3,0,0.334737660000428,"distractors",103
4,1,3,1.5,1,0.335124622999501,"distractors",104
4,1,0.7,3,0,0.48458120199939,"distractors",105
4,1,3,0.7,1,0.884314993000771,"distractors",106
4,1,0.7,3,1,0.151287458999832,"distractors",107
4,1,1.5,0.7,0,0.368421400999978,"distractors",108
4,1,1.5,0.3,0,6.00174331699964,"distractors",109
4,1,0.3,0.7,0,1.10195497399945,"distractors",110
4,1,0.3,3,1,0.35158535499977,"distractors",111
4,1,1.5,0.7,1,0.351233573000172,"distractors",112
4,1,0.7,3,0,0.618243584000084,"distractors",113
4,1,3,0.3,1,0.301514511000278,"distractors",114
4,1,0.7,1.5,0,0.433618545999707,"distractors",115
4,1,0.7,1.5,1,0.517833085000348,"distractors",116
4,1,3,1.5,0,0.0849305650008318,"distractors",117
4,1,0.3,1.5,1,0.317451235999215,"distractors",118
4,1,3,0.3,1,0.483822316999976,"distractors",119
4,1,0.3,1.5,0,0.0349000500000329,"distractors",120
4,1,0.3,0.7,0,0.11827921800068,"distractors",121
4,1,1.5,0.7,1,0.318241279999711,"distractors",122
4,1,3,0.3,1,0.368288067999856,"distractors",123
4,1,1.5,3,0,0.384676282000328,"distractors",124
4,1,0.3,3,0,0.268247352999424,"distractors",125
4,1,0.3,3,0,0.284380447999865,"distractors",126
4,1,0.3,1.5,1,0.384732448999785,"distractors",127
4,1,0.7,1.5,0,0.468189901000187,"distractors",128
4,1,3,1.5,1,0.285110572999656,"distractors",129
4,1,0.7,1.5,1,0.501656280000134,"distractors",130
4,1,0.7,3,1,0.00161080999987462,"distractors",131
4,1,0.3,1.5,0,0.216950301999532,"distractors",132
4,1,3,1.5,1,0.350325245000022,"distractors",133
4,1,3,0.3,0,0.334260431000075,"distractors",134
4,1,1.5,3,1,0.284090256999662,"distractors",135
4,1,1.5,0.7,0,0.384557846999996,"distractors",136
4,1,0.3,0.7,0,1.05161727900031,"distractors",137
4,1,3,0.7,0,0.601501959000416,"distractors",138
4,1,0.3,3,1,0.401498914000513,"distractors",139
4,1,0.7,0.3,1,0.0682541349997337,"distractors",140
4,1,3,1.5,0,0.000262513000052422,"distractors",141
4,1,1.5,0.3,1,0.401443674999427,"distractors",142
4,1,3,1.5,1,0.367547353999726,"distractors",143
4,1,0.7,0.3,1,0.382624986999872,"distractors",144
4,1,3,0.3,1,2.00138534899997,"distractors",145
4,1,0.7,3,0,0.834907987000406,"distractors",146
4,1,1.5,3,1,0.767569452000316,"distractors",147
4,1,3,0.7,0,0.367551551999895,"distractors",148
4,1,0.3,1.5,1,0.484745370000383,"distractors",149
4,1,1.5,0.3,1,0.401260738000019,"distractors",150
4,1,0.3,0.7,0,1.53472297099961,"distractors",151
4,1,0.3,1.5,1,0.518322205999539,"distractors",152
4,1,0.7,3,1,0.551660271999936,"distractors",153
4,1,3,0.3,1,0.416905432999556,"distractors",154
4,1,0.7,1.5,1,0.418120050000653,"distractors",155
4,1,3,0.3,1,0.30148069400002,"distractors",156
4,1,1.5,0.7,1,0.201438082000095,"distractors",157
4,1,0.3,1.5,0,2.95134937500006,"distractors",158
4,1,3,0.3,1,0.350724668000112,"distractors",159
4,1,0.3,3,0,0.40162535699983,"distractors",160
4,1,1.5,3,1,0.401658058999601,"distractors",161
4,1,1.5,3,0,0.468035245000465,"distractors",162
4,1,3,0.7,0,0.500297439999486,"distractors",163
4,1,0.7,3,1,0.118134676999944,"distractors",164
4,1,1.5,0.3,0,1.00157500399928,"distractors",165
4,1,3,0.7,0,0.383799823000118,"distractors",166
4,1,0.7,1.5,0,0.551528844000131,"distractors",167
4,1,0.3,3,0,0.166984151000179,"distractors",168
4,1,3,1.5,0,0.234892659000252,"distractors",169
4,1,3,1.5,0,0.418549912999879,"distractors",170
4,1,0.7,1.5,0,0.268233525999676,"distractors",171
4,1,0.3,0.7,0,0.434582578999652,"distractors",172
4,1,3,0.7,0,0.584675678999702,"distractors",173
4,1,3,0.3,0,0.268264753999574,"distractors",174
4,1,0.3,3,0,0.250613833999523,"distractors",175
4,1,0.3,1.5,0,0.334997664999719,"distractors",176
4,1,1.5,0.3,1,0.267861762999928,"distractors",177
4,1,0.3,3,0,0.784696495000389,"distractors",178
4,1,1.5,0.3,1,0.618094690000362,"distractors",179
4,1,0.7,0.3,1,0.651713017000475,"distractors",180
4,1,0.7,0.3,1,0.567477793000762,"distractors",181
4,1,3,0.7,0,0.117913412999769,"distractors",182
4,1,0.7,1.5,1,0.633509358999618,"distractors",183
4,1,0.3,1.5,0,1.2347094099996,"distractors",184
4,1,1.5,0.7,0,0.581998133000525,"distractors",185
4,1,3,1.5,0,0.484784382999351,"distractors",186
4,1,3,1.5,0,1.9512058320006,"distractors",187
4,1,0.7,1.5,1,1.05128600599983,"distractors",188
4,1,0.3,0.7,0,0.651482831999601,"distractors",189
4,1,0.3,3,0,0.319274674000553,"distractors",190
4,1,1.5,0.3,1,0.3016091770005,"distractors",191
4,1,1.5,3,0,0.584365980999792,"distractors",192
4,1,0.7,0.3,1,0.167137909999838,"distractors",193
4,1,0.3,1.5,0,0.336535435999394,"distractors",194
4,1,1.5,3,1,0.668150313999831,"distractors",195
4,1,0.7,3,1,0.434748762999334,"distractors",196
4,1,0.3,3,0,0.784063355999933,"distractors",197
4,1,3,0.3,1,2.60127578900028,"distractors",198
4,1,1.5,0.7,0,0.983760367000286,"distractors",199
4,1,0.7,1.5,0,1.8174268240009,"distractors",200
4,1,0.7,0.3,1,0.418171401000109,"distractors",201
4,1,3,0.7,1,1.83440503699967,"distractors",202
4,1,1.5,0.7,0,1.04867033299979,"distractors",203
4,1,1.5,0.7,1,0.618201977000354,"distractors",204
4,1,0.7,0.3,1,1.71856655500051,"distractors",205
4,1,3,1.5,0,3.16846038600033,"distractors",206
4,1,1.5,3,1,0.584469313999762,"distractors",207
4,1,0.3,0.7,0,0.601515424000354,"distractors",208
4,1,0.7,3,0,6.3015656030002,"distractors",209
4,1,1.5,0.3,1,0.401464769000086,"distractors",210
4,1,0.3,0.7,0,0.833684512999753,"distractors",211
4,1,0.7,0.3,1,0.0345369670003493,"distractors",212
4,1,1.5,0.7,1,0.368264534000446,"distractors",213
4,1,0.7,3,0,4.1347306760008,"distractors",214
4,1,3,1.5,1,0.968086498000048,"distractors",215
4,1,0.3,0.7,1,0.38571522500024,"distractors",216
4,1,0.7,1.5,1,0.83490423999956,"distractors",217
4,1,0.3,0.7,0,0.366105774000062,"distractors",218
4,1,1.5,0.3,1,0.734410273999856,"distractors",219
4,1,3,0.3,1,0.383763320999606,"distractors",220
4,1,1.5,3,1,0.76795876200049,"distractors",221
4,1,1.5,0.7,0,1.8849588310004,"distractors",222
4,1,3,0.7,1,0.368163230999926,"distractors",223
4,1,0.7,0.3,1,0.385036886000307,"distractors",224
4,1,0.7,1.5,0,0.418386772999838,"distractors",225
4,1,0.3,3,0,0.968064968999897,"distractors",226
4,1,0.3,0.7,0,1.06837743000051,"distractors",227
4,1,0.3,1.5,0,1.7683662139998,"distractors",228
4,1,1.5,0.3,1,18.5013340570003,"distractors",229
4,1,1.5,3,1,0.418246133000139,"distractors",230
4,1,0.3,3,0,0.317523056000027,"distractors",231
4,1,3,0.7,1,0.368140060000769,"distractors",232
4,1,3,0.7,1,0.467527005000193,"distractors",233
4,1,1.5,3,0,0.334313696999743,"distractors",234
4,1,1.5,3,1,0.401225456000248,"distractors",235
4,1,1.5,0.7,0,1.88488064300054,"distractors",236
4,1,0.3,3,0,0.318212856000173,"distractors",237
4,1,0.3,0.7,0,0.300872755000455,"distractors",238
4,1,0.3,0.7,0,0.199440088999836,"distractors",239
4,1,1.5,0.7,1,0.235006560999864,"distractors",240
4,1,0.3,0.7,0,0.335138983999968,"distractors",241
4,1,1.5,0.7,0,0.417867210000622,"distractors",242
4,1,0.7,0.3,1,0.535278241000015,"distractors",243
4,1,0.3,3,0,0.335016145999361,"distractors",244
4,1,3,0.3,1,1.31843625300007,"distractors",245
4,1,3,0.3,1,0.384873965999759,"distractors",246
4,1,1.5,0.3,1,0.351649100000031,"distractors",247
4,1,0.3,1.5,1,0.368287982999391,"distractors",248
4,1,0.7,1.5,1,0.217484409999997,"distractors",249
4,1,0.7,3,1,1.31834954099941,"distractors",250
4,1,1.5,3,1,1.56681582000056,"distractors",251
4,1,3,1.5,0,0.801321567000741,"distractors",252
4,1,0.7,0.3,1,0.368220043000292,"distractors",253
4,1,0.3,1.5,0,1.66836978699939,"distractors",254
4,1,0.7,3,1,1.41822531800062,"distractors",255
4,1,1.5,0.3,1,0.43508785999984,"distractors",256
4,1,0.3,1.5,0,1.10134870399997,"distractors",257
4,1,3,1.5,1,0.485005362000265,"distractors",258
4,1,3,0.7,1,0.384891366999909,"distractors",259
4,1,0.3,3,0,0.582156245999613,"distractors",260
4,1,0.3,3,1,0.301607757000056,"distractors",261
4,1,3,0.3,1,0.56749448499977,"distractors",262
4,1,1.5,0.7,1,0.384905311999319,"distractors",263
4,1,3,1.5,1,0.601028506999683,"distractors",264
4,1,0.7,3,1,0.335080885000025,"distractors",265
4,1,1.5,3,0,0.918190489000153,"distractors",266
4,1,0.7,3,1,0.818081465999967,"distractors",267
4,1,0.3,1.5,0,1.20187977800015,"distractors",268
4,1,0.3,1.5,0,0.55169438699977,"distractors",269
4,1,0.7,3,1,0.468241173000024,"distractors",270
4,1,3,0.3,1,0.550363157999527,"distractors",271
4,1,3,0.7,1,0.618163471000116,"distractors",272
4,1,3,1.5,1,1.3846626200002,"distractors",273
4,1,0.7,3,0,0.568215373999919,"distractors",274
4,1,3,0.7,1,0.401547411999672,"distractors",275
4,1,0.7,0.3,1,0.684854109000298,"distractors",276
4,1,0.7,0.3,1,0.550754527999743,"distractors",277
4,1,1.5,0.7,0,0.601420470999983,"distractors",278
4,1,1.5,0.3,1,0.400839830000223,"distractors",279
4,1,0.7,1.5,0,0.384837980999691,"distractors",280
4,1,1.5,0.3,1,0.434595926999464,"distractors",281
4,1,0.7,1.5,0,0.584934450000219,"distractors",282
4,1,0.7,0.3,1,1.30072967999968,"distractors",283
4,1,3,1.5,1,0.36814142700041,"distractors",284
4,1,0.7,1.5,0,0.651462785999684,"distractors",285
4,1,3,0.3,1,0.301483367000401,"distractors",286
4,1,3,1.5,1,0.385000313000091,"distractors",287
4,1,0.3,0.7,1,0.551490716999979,"distractors",288
4,1,0.3,3,0,0.700832934000573,"distractors",289
4,1,1.5,3,1,0.334878824000043,"distractors",290
4,1,3,1.5,1,0.300407763999829,"distractors",291
4,1,0.7,1.5,1,0.401546745000815,"distractors",292
4,1,0.7,1.5,1,1.30156234599963,"distractors",293
4,1,0.3,1.5,1,1.75157159400078,"distractors",294
4,1,3,1.5,0,2.08285000800061,"distractors",295
4,1,0.7,3,0,1.65150508599982,"distractors",296
4,1,0.7,0.3,1,0.835041661999639,"distractors",297
4,1,0.3,3,0,0.500305547999233,"distractors",298
4,1,3,0.3,0,0.635041507999631,"distractors",299
4,1,1.5,0.3,1,0.518590231000417,"distractors",300
4,1,3,1.5,1,0.551681230001122,"distractors",301
4,1,0.3,1.5,0,0.451611070999206,"distractors",302
4,1,3,1.5,1,0.535062477001702,"distractors",303
4,1,0.3,1.5,1,0.583569444001114,"distractors",304
4,1,0.7,3,0,0.467422054998679,"distractors",305
4,1,1.5,3,1,1.35136699100076,"distractors",306
4,1,1.5,0.7,1,0.634230005998688,"distractors",307
4,1,3,0.3,1,0.251574519999849,"distractors",308
4,1,0.3,0.7,1,2.23501810000016,"distractors",309
4,1,0.3,3,0,0.918250063999949,"distractors",310
4,1,3,1.5,1,6.65193055700001,"distractors",311
4,1,0.3,1.5,0,0.984868292000101,"distractors",312
4,1,0.7,3,1,0.801645884999743,"distractors",313
4,1,0.3,1.5,0,0.500958863000051,"distractors",314
4,1,3,0.7,1,0.268044825999823,"distractors",315
4,1,0.7,0.3,0,0.901287033000699,"distractors",316
4,1,0.7,0.3,1,0.634828596999796,"distractors",317
4,1,0.3,0.7,0,0.401673807999032,"distractors",318
4,1,1.5,0.3,1,0.385001172000557,"distractors",319
4,1,3,0.3,0,0.700355793000199,"distractors",320
4,1,3,0.3,1,0.268030708000879,"distractors",321
4,1,0.7,0.3,1,0.334579567001128,"distractors",322
4,1,0.7,1.5,1,0.668204384001001,"distractors",323
4,1,1.5,3,1,0.467837632999363,"distractors",324
4,1,3,0.3,0,0.285216195999965,"distractors",325
4,1,1.5,0.7,0,0.334181076999812,"distractors",326
4,1,0.7,3,0,0.467805021999084,"distractors",327
4,1,1.5,0.3,1,0.71863346399914,"distractors",328
4,1,3,0.3,1,0.517899866999869,"distractors",329
4,1,1.5,3,1,0.550403021999955,"distractors",330
4,1,1.5,3,1,0.384986265000407,"distractors",331
4,1,0.7,0.3,1,0.0850027760006924,"distractors",332
4,1,0.7,3,1,0.267054465000911,"distractors",333
4,1,0.7,0.3,1,0.284888797999884,"distractors",334
4,1,1.5,0.3,1,0.384041356001035,"distractors",335
4,1,0.3,3,0,0.0678376579999167,"distractors",336
4,1,1.5,3,1,0.117014498000572,"distractors",337
4,1,0.3,0.7,1,0.13493151900002,"distractors",338
4,1,1.5,0.7,0,0.268390019000435,"distractors",339
4,1,1.5,0.3,1,0.53488609300075,"distractors",340
4,1,0.3,3,1,0.318141454999932,"distractors",341
4,1,3,0.7,0,0.384797753000385,"distractors",342
4,1,0.7,3,1,0.434871526000279,"distractors",343
4,1,0.3,0.7,0,0.268337653998969,"distractors",344
4,1,0.3,3,0,0.651560333999441,"distractors",345
4,1,3,1.5,1,0.451436342000306,"distractors",346
4,1,3,0.7,0,0.268025361001492,"distractors",347
4,1,0.7,1.5,1,0.601587716999347,"distractors",348
4,1,0.7,1.5,1,0.618323480999607,"distractors",349
4,1,1.5,0.7,0,0.23502409700086,"distractors",350
4,1,1.5,0.7,0,0.35163877100058,"distractors",351
4,1,0.3,0.7,0,0.733553932999712,"distractors",352
4,1,0.3,0.7,1,0.451661473000058,"distractors",353
4,1,0.7,1.5,1,0.401349457000833,"distractors",354
4,1,0.3,1.5,0,0.717739736999647,"distractors",355
4,1,3,0.7,0,0.351448834999246,"distractors",356
4,1,3,0.7,1,0.00160669199976837,"distractors",357
4,1,3,0.7,0,0.100482595000358,"distractors",358
4,1,1.5,0.7,1,0.134744392000357,"distractors",359
4,1,1.5,0.3,1,0.301697409000553,"distractors",360
5,1,0.7,3,0,0.92647,"distractors",1
5,1,0.7,1.5,0,1.05305,"distractors",2
5,1,3,1.5,1,0.32001,"distractors",3
5,1,0.3,1.5,0,0.32051,"distractors",4
5,1,1.5,3,1,0.139605,"distractors",5
5,1,0.3,0.7,1,0.63218,"distractors",6
5,1,0.3,3,1,1.2452,"distractors",7
5,1,0.7,0.3,0,0.566855,"distractors",8
5,1,3,0.3,0,0.26699,"distractors",9
5,1,3,0.7,0,0.300455,"distractors",10
5,1,1.5,0.3,1,0.054705,"distractors",11
5,1,1.5,0.7,0,0.055735,"distractors",12
5,1,0.7,1.5,0,0.355495,"distractors",13
5,1,0.3,3,1,0.024185,"distractors",14
5,1,1.5,0.7,1,0.039175,"distractors",15
5,1,3,1.5,0,0.583105,"distractors",16
5,1,3,0.7,0,0.184355,"distractors",17
5,1,0.7,3,0,0.27844,"distractors",18
5,1,0.7,0.3,1,0.301825,"distractors",19
5,1,0.3,0.7,0,0.598865,"distractors",20
5,1,3,0.3,0,0.250385,"distractors",21
5,1,1.5,3,1,0.301375,"distractors",22
5,1,1.5,0.3,1,0.522665,"distractors",23
5,1,0.3,1.5,1,0.035325,"distractors",24
5,1,0.3,3,1,0.184255,"distractors",25
5,1,0.3,0.7,1,0.253565,"distractors",26
5,1,3,1.5,1,0.28371,"distractors",27
5,1,0.7,0.3,1,0.3427,"distractors",28
5,1,3,0.3,0,0.28429,"distractors",29
5,1,3,0.7,0,0.55285,"distractors",30
5,1,1.5,0.7,0,0.24404,"distractors",31
5,1,1.5,3,1,0.071185,"distractors",32
5,1,0.7,3,1,0.2835,"distractors",33
5,1,1.5,0.3,1,0.466235,"distractors",34
5,1,0.3,1.5,0,0.24181,"distractors",35
5,1,0.7,1.5,0,0.58334,"distractors",36
5,1,0.3,3,0,0.701155,"distractors",37
5,1,1.5,3,1,0.301675,"distractors",38
5,1,1.5,0.3,1,0.300725,"distractors",39
5,1,0.3,1.5,0,0.49914,"distractors",40
5,1,0.7,3,0,0.46745,"distractors",41
5,1,3,0.3,1,0.25059,"distractors",42
5,1,1.5,0.7,1,0.585175,"distractors",43
5,1,0.7,1.5,1,0.33993,"distractors",44
5,1,3,0.7,0,0.335505,"distractors",45
5,1,3,1.5,0,0.466205,"distractors",46
5,1,0.7,0.3,1,0.34083,"distractors",47
5,1,0.3,0.7,1,0.178675,"distractors",48
5,1,0.7,1.5,0,0.51607,"distractors",49
5,1,0.7,3,1,0.196665,"distractors",50
5,1,3,1.5,0,0.217695,"distractors",51
5,1,1.5,0.7,0,0.25059,"distractors",52
5,1,1.5,0.3,0,0.068575,"distractors",53
5,1,3,0.7,0,0.267255,"distractors",54
5,1,0.3,0.7,1,0.18585,"distractors",55
5,1,1.5,3,0,1.16267,"distractors",56
5,1,3,0.3,0,0.25669,"distractors",57
5,1,0.7,0.3,0,0.38127,"distractors",58
5,1,0.3,3,0,0.25194,"distractors",59
5,1,0.3,1.5,0,0.11794,"distractors",60
5,1,0.3,1.5,0,0.1912,"distractors",61
5,1,3,0.3,1,0.23421,"distractors",62
5,1,1.5,3,0,0.48247,"distractors",63
5,1,0.3,3,0,0.36865,"distractors",64
5,1,3,1.5,0,0.308715,"distractors",65
5,1,0.3,0.7,1,0.209235,"distractors",66
5,1,1.5,0.7,0,0.461055,"distractors",67
5,1,0.7,3,0,0.50065,"distractors",68
5,1,1.5,0.3,1,0.87357,"distractors",69
5,1,3,0.7,1,0.262095,"distractors",70
5,1,0.7,0.3,0,0.40035,"distractors",71
5,1,0.7,1.5,0,0.383395,"distractors",72
5,1,3,1.5,0,0.25618,"distractors",73
5,1,0.3,1.5,1,0.236715,"distractors",74
5,1,0.3,3,0,0.241,"distractors",75
5,1,0.7,1.5,0,0.26739,"distractors",76
5,1,0.7,3,0,0.30417,"distractors",77
5,1,1.5,0.7,1,0.110435,"distractors",78
5,1,0.3,0.7,0,0.2012,"distractors",79
5,1,1.5,3,0,0.272305,"distractors",80
5,1,1.5,0.3,1,0.052435,"distractors",81
5,1,3,0.3,0,0.228875,"distractors",82
5,1,3,0.7,0,0.137055,"distractors",83
5,1,0.7,0.3,0,0.292445,"distractors",84
5,1,1.5,0.3,1,0.055485,"distractors",85
5,1,1.5,0.7,0,0.300465,"distractors",86
5,1,0.7,0.3,1,0.566055,"distractors",87
5,1,0.7,1.5,0,0.54952,"distractors",88
5,1,3,0.3,0,0.16101,"distractors",89
5,1,3,0.7,1,0.12979,"distractors",90
5,1,1.5,3,1,0.235475,"distractors",91
5,1,3,1.5,0,0.234355,"distractors",92
5,1,0.3,0.7,1,0.356675,"distractors",93
5,1,0.3,1.5,0,0.491795,"distractors",94
5,1,0.7,3,0,0.36688,"distractors",95
5,1,0.3,3,0,0.251015,"distractors",96
5,1,3,1.5,0,0.24347,"distractors",97
5,1,1.5,3,0,0.305385,"distractors",98
5,1,0.7,3,0,0.2596,"distractors",99
5,1,0.3,0.7,1,0.26732,"distractors",100
5,1,0.7,0.3,1,0.08493,"distractors",101
5,1,1.5,0.3,0,0.04047,"distractors",102
5,1,1.5,0.7,0,0.208425,"distractors",103
5,1,0.7,1.5,0,0.669725,"distractors",104
5,1,3,0.7,0,0.13852,"distractors",105
5,1,3,0.3,0,0.24213,"distractors",106
5,1,0.3,3,1,0.366795,"distractors",107
5,1,0.3,1.5,1,0.052165,"distractors",108
5,1,0.3,1.5,0,0.698095,"distractors",109
5,1,1.5,0.7,0,0.71505,"distractors",110
5,1,0.3,3,0,0.241085,"distractors",111
5,1,0.7,3,0,0.540615,"distractors",112
5,1,3,0.7,1,0.075795,"distractors",113
5,1,3,0.3,1,0.317045,"distractors",114
5,1,3,1.5,0,0.279235,"distractors",115
5,1,1.5,3,0,0.45011,"distractors",116
5,1,0.7,1.5,1,0.252305,"distractors",117
5,1,0.7,0.3,0,0.25935,"distractors",118
5,1,1.5,0.3,1,0.254885,"distractors",119
5,1,0.3,0.7,0,0.494495,"distractors",120
5,1,0.3,0.7,0,0.217575,"distractors",121
5,1,0.7,0.3,1,0.126485,"distractors",122
5,1,0.7,1.5,1,0.624785,"distractors",123
5,1,3,0.7,1,0.80863,"distractors",124
5,1,3,1.5,1,0.27098,"distractors",125
5,1,3,0.3,0,0.27361,"distractors",126
5,1,0.7,3,0,0.3398,"distractors",127
5,1,0.3,1.5,1,0.58819,"distractors",128
5,1,0.3,3,0,0.238115,"distractors",129
5,1,1.5,0.3,1,0.272255,"distractors",130
5,1,1.5,0.7,1,0.175245,"distractors",131
5,1,1.5,3,1,0.184615,"distractors",132
5,1,0.7,0.3,0,0.336515,"distractors",133
5,1,1.5,3,0,0.537145,"distractors",134
5,1,3,0.3,1,0.090425,"distractors",135
5,1,0.3,1.5,0,0.17703,"distractors",136
5,1,0.3,3,0,0.25897,"distractors",137
5,1,1.5,0.7,1,0.235145,"distractors",138
5,1,3,0.7,1,0.208265,"distractors",139
5,1,0.3,0.7,0,0.374625,"distractors",140
5,1,0.7,3,1,0.225255,"distractors",141
5,1,1.5,0.3,1,0.13496,"distractors",142
5,1,0.7,1.5,0,0.367205,"distractors",143
5,1,3,1.5,0,0.1436,"distractors",144
5,1,0.7,3,0,0.036255,"distractors",145
5,1,3,1.5,1,0.457615,"distractors",146
5,1,0.3,0.7,1,0.632115,"distractors",147
5,1,0.3,1.5,0,0.29173,"distractors",148
5,1,1.5,3,1,0.32576,"distractors",149
5,1,0.7,1.5,0,0.36959,"distractors",150
5,1,3,0.7,1,0.234295,"distractors",151
5,1,1.5,0.7,1,0.262475,"distractors",152
5,1,1.5,0.3,0,0.20122,"distractors",153
5,1,0.7,0.3,0,0.283755,"distractors",154
5,1,3,0.3,0,0.514735,"distractors",155
5,1,0.3,3,1,0.357065,"distractors",156
5,1,3,1.5,0,0.227395,"distractors",157
5,1,0.3,3,0,0.78165,"distractors",158
5,1,0.3,1.5,0,0.190465,"distractors",159
5,1,0.7,1.5,0,0.086275,"distractors",160
5,1,3,0.7,0,0.170735,"distractors",161
5,1,1.5,0.3,0,0.272935,"distractors",162
5,1,0.7,0.3,0,0.23401,"distractors",163
5,1,0.3,0.7,0,0.05902,"distractors",164
5,1,1.5,0.7,1,0.245325,"distractors",165
5,1,3,0.3,0,0.086025,"distractors",166
5,1,0.7,3,1,0.30078,"distractors",167
5,1,1.5,3,0,0.15743,"distractors",168
5,1,1.5,3,0,0.06855,"distractors",169
5,1,0.7,1.5,0,0.494635,"distractors",170
5,1,3,0.7,1,0.267975,"distractors",171
5,1,1.5,0.7,0,0.45838,"distractors",172
5,1,0.7,0.3,0,0.30145,"distractors",173
5,1,0.3,3,0,0.201065,"distractors",174
5,1,0.3,1.5,0,0.15794,"distractors",175
5,1,1.5,0.3,1,0.20112,"distractors",176
5,1,0.7,3,0,0.27553,"distractors",177
5,1,0.3,0.7,0,0.13784,"distractors",178
5,1,3,0.3,0,0.021475,"distractors",179
5,1,3,1.5,1,0.185,"distractors",180
5,1,3,0.7,1,0.433205,"distractors",181
5,1,1.5,3,0,0.176375,"distractors",182
5,1,0.7,3,0,0.53496,"distractors",183
5,1,0.3,1.5,0,0.23442,"distractors",184
5,1,3,0.3,0,0.237845,"distractors",185
5,1,1.5,0.7,0,0.168185,"distractors",186
5,1,1.5,0.3,1,0.085055,"distractors",187
5,1,0.7,1.5,0,0.12656,"distractors",188
5,1,0.3,3,0,0.539015,"distractors",189
5,1,0.7,0.3,1,0.401285,"distractors",190
5,1,0.3,0.7,0,0.09416,"distractors",191
5,1,3,1.5,0,0.23697,"distractors",192
5,1,0.7,3,0,0.079865,"distractors",193
5,1,3,0.7,1,0.19132,"distractors",194
5,1,0.3,1.5,0,0.094005,"distractors",195
5,1,1.5,3,1,0.23574,"distractors",196
5,1,0.7,0.3,0,0.323025,"distractors",197
5,1,0.3,0.7,0,0.054885,"distractors",198
5,1,3,0.3,1,0.245255,"distractors",199
5,1,3,1.5,1,0.260465,"distractors",200
5,1,1.5,0.7,1,0.091695,"distractors",201
5,1,0.7,1.5,0,0.155845,"distractors",202
5,1,0.3,3,0,0.071645,"distractors",203
5,1,1.5,0.3,1,0.218015,"distractors",204
5,1,0.7,1.5,0,0.26731,"distractors",205
5,1,1.5,3,0,0.05999,"distractors",206
5,1,1.5,0.7,1,0.569505,"distractors",207
5,1,3,0.3,1,0.30086,"distractors",208
5,1,0.3,1.5,0,0.416245,"distractors",209
5,1,1.5,0.3,1,0.259335,"distractors",210
5,1,0.7,0.3,0,0.108655,"distractors",211
5,1,3,1.5,1,0.129815,"distractors",212
5,1,0.3,3,0,0.503345,"distractors",213
5,1,0.7,3,0,0.336635,"distractors",214
5,1,0.3,0.7,0,0.01887,"distractors",215
5,1,3,0.7,0,0.501485,"distractors",216
5,1,0.7,1.5,0,0.089175,"distractors",217
5,1,0.3,1.5,0,0.16775,"distractors",218
5,1,1.5,0.3,1,0.00987,"distractors",219
5,1,0.3,3,0,0.35083,"distractors",220
5,1,1.5,3,0,0.15428,"distractors",221
5,1,0.7,0.3,0,0.31795,"distractors",222
5,1,0.7,3,1,0.358325,"distractors",223
5,1,0.3,0.7,0,0.087435,"distractors",224
5,1,1.5,0.7,1,0.73442,"distractors",225
5,1,3,0.7,1,0.26716,"distractors",226
5,1,3,0.3,0,0.33506,"distractors",227
5,1,3,1.5,1,0.271575,"distractors",228
5,1,0.3,3,1,0.308065,"distractors",229
5,1,1.5,0.3,1,0.3233,"distractors",230
5,1,0.7,3,1,0.168175,"distractors",231
5,1,0.7,0.3,1,0.93177,"distractors",232
5,1,0.3,1.5,0,0.08591,"distractors",233
5,1,1.5,3,0,0.250675,"distractors",234
5,1,3,0.3,0,0.1844,"distractors",235
5,1,1.5,0.7,0,0.21986,"distractors",236
5,1,3,1.5,1,0.483135,"distractors",237
5,1,3,0.7,0,0.26717,"distractors",238
5,1,0.7,1.5,1,0.304665,"distractors",239
5,1,0.3,0.7,0,0.061105,"distractors",240
5,1,0.3,1.5,0,0.09637,"distractors",241
5,1,1.5,3,0,0.17637,"distractors",242
5,1,1.5,0.7,0,0.274785,"distractors",243
5,1,0.7,0.3,1,0.120035,"distractors",244
5,1,3,0.3,1,0.068015,"distractors",245
5,1,0.7,1.5,0,0.350285,"distractors",246
5,1,3,0.7,0,0.24597,"distractors",247
5,1,0.3,0.7,0,0.15808,"distractors",248
5,1,0.7,3,1,0.258695,"distractors",249
5,1,0.3,3,0,0.223665,"distractors",250
5,1,1.5,0.3,1,0.10142,"distractors",251
5,1,3,1.5,0,0.43324,"distractors",252
5,1,3,1.5,0,0.25992,"distractors",253
5,1,3,0.3,0,0.28499,"distractors",254
5,1,0.3,3,1,0.035335,"distractors",255
5,1,0.7,3,0,0.48676,"distractors",256
5,1,0.7,1.5,1,0.06075,"distractors",257
5,1,0.3,0.7,0,0.37221,"distractors",258
5,1,0.7,0.3,1,0.084775,"distractors",259
5,1,1.5,0.7,1,0.333815,"distractors",260
5,1,3,0.7,0,0.23729,"distractors",261
5,1,1.5,0.3,0,0.223325,"distractors",262
5,1,1.5,3,1,0.27701,"distractors",263
5,1,0.3,1.5,0,0.057825,"distractors",264
5,1,1.5,0.7,1,0.222035,"distractors",265
5,1,0.7,0.3,1,0.283805,"distractors",266
5,1,3,0.3,0,0.21825,"distractors",267
5,1,3,1.5,0,0.48542,"distractors",268
5,1,1.5,3,1,0.28581,"distractors",269
5,1,0.3,3,0,0.908295,"distractors",270
5,1,0.3,0.7,0,0.209365,"distractors",271
5,1,1.5,0.3,1,0.25082,"distractors",272
5,1,0.7,1.5,0,0.400065,"distractors",273
5,1,3,0.7,0,0.06375,"distractors",274
5,1,0.7,3,0,0.035365,"distractors",275
5,1,0.3,1.5,1,0.48772,"distractors",276
5,1,1.5,0.3,1,0.213165,"distractors",277
5,1,0.3,3,0,0.43366,"distractors",278
5,1,0.7,1.5,1,0.300565,"distractors",279
5,1,3,1.5,0,0.257775,"distractors",280
5,1,1.5,0.7,0,0.30427,"distractors",281
5,1,0.7,0.3,1,0.221905,"distractors",282
5,1,0.3,1.5,0,0.079885,"distractors",283
5,1,3,0.7,0,0.31636,"distractors",284
5,1,3,0.3,1,0.262305,"distractors",285
5,1,0.3,0.7,0,0.10451,"distractors",286
5,1,1.5,3,0,0.134905,"distractors",287
5,1,0.7,3,0,0.340035,"distractors",288
5,1,0.7,0.3,1,0.107345,"distractors",289
5,1,0.7,3,0,0.13474,"distractors",290
5,1,0.7,1.5,0,0.07631,"distractors",291
5,1,0.3,3,1,0.01055,"distractors",292
5,1,0.3,1.5,1,0.615425,"distractors",293
5,1,3,0.7,0,0.271815,"distractors",294
5,1,1.5,0.7,0,0.194665,"distractors",295
5,1,0.3,0.7,1,0.370025,"distractors",296
5,1,1.5,3,0,0.26211,"distractors",297
5,1,3,0.3,0,0.151,"distractors",298
5,1,1.5,0.3,1,0.03493,"distractors",299
5,1,3,1.5,0,0.59929,"distractors",300
5,1,3,0.7,0,0.288165,"distractors",301
5,1,0.3,3,1,0.13464,"distractors",302
5,1,1.5,3,1,0.227035,"distractors",303
5,1,0.7,0.3,1,0.93067,"distractors",304
5,1,0.7,3,0,0.439585,"distractors",305
5,1,0.3,1.5,0,0.881125,"distractors",306
5,1,1.5,0.7,0,0.300415,"distractors",307
5,1,3,0.3,1,0.18434,"distractors",308
5,1,3,1.5,1,0.49992,"distractors",309
5,1,0.7,1.5,1,0.420035,"distractors",310
5,1,0.3,0.7,0,1.02995,"distractors",311
5,1,1.5,0.3,1,0.112865,"distractors",312
5,1,0.3,0.7,0,0.7379,"distractors",313
5,1,3,0.3,0,0.433285,"distractors",314
5,1,1.5,0.3,1,0.118175,"distractors",315
5,1,3,1.5,0,0.10546,"distractors",316
5,1,0.7,3,1,0.027455,"distractors",317
5,1,1.5,0.7,0,0.154165,"distractors",318
5,1,0.3,3,0,0.287595,"distractors",319
5,1,0.7,0.3,1,0.43322,"distractors",320
5,1,0.3,1.5,0,0.325835,"distractors",321
5,1,0.7,1.5,0,0.37251,"distractors",322
5,1,3,0.7,0,0.254645,"distractors",323
5,1,1.5,3,1,0.176285,"distractors",324
5,1,0.7,3,0,0.287075,"distractors",325
5,1,0.7,0.3,1,0.18897,"distractors",326
5,1,3,0.7,0,0.482985,"distractors",327
5,1,1.5,3,1,0.184495,"distractors",328
5,1,1.5,0.7,0,0.16772,"distractors",329
5,1,0.7,1.5,1,0.105875,"distractors",330
5,1,0.3,1.5,0,0.450365,"distractors",331
5,1,0.3,0.7,1,0.20939,"distractors",332
5,1,1.5,0.3,1,0.33347,"distractors",333
5,1,0.3,3,0,0.53245,"distractors",334
5,1,3,0.3,1,0.25145,"distractors",335
5,1,3,1.5,0,0.30093,"distractors",336
5,1,0.3,0.7,1,0.435225,"distractors",337
5,1,0.3,1.5,0,0.02117,"distractors",338
5,1,0.7,3,0,0.17971,"distractors",339
5,1,0.7,0.3,1,0.05444,"distractors",340
5,1,0.3,3,1,0.423245,"distractors",341
5,1,3,0.7,0,0.284805,"distractors",342
5,1,3,1.5,0,0.262245,"distractors",343
5,1,0.7,1.5,1,0.10172,"distractors",344
5,1,1.5,3,0,0.267065,"distractors",345
5,1,1.5,0.3,0,0.278915,"distractors",346
5,1,3,0.3,0,0.273815,"distractors",347
5,1,1.5,0.7,0,0.135005,"distractors",348
5,1,0.3,0.7,1,0.567805,"distractors",349
5,1,0.7,1.5,1,0.317055,"distractors",350
5,1,1.5,0.3,0,0.27879,"distractors",351
5,1,0.3,1.5,1,0.62087,"distractors",352
5,1,0.3,3,0,0.38571,"distractors",353
5,1,0.7,3,0,0.238615,"distractors",354
5,1,3,0.7,1,0.441425,"distractors",355
5,1,1.5,0.7,1,0.73912,"distractors",356
5,1,1.5,3,1,0.151085,"distractors",357
5,1,3,1.5,0,0.251035,"distractors",358
5,1,0.7,0.3,0,0.260175,"distractors",359
5,1,3,0.3,0,0.200675,"distractors",360
6,1,0.7,3,0,0.53426,"distractors",1
6,1,1.5,0.3,1,0.40002,"distractors",2
6,1,0.3,3,0,0.45185,"distractors",3
6,1,3,0.7,1,0.36232,"distractors",4
6,1,1.5,0.7,0,0.682255,"distractors",5
6,1,0.3,1.5,0,0.402665,"distractors",6
6,1,3,1.5,1,0.494125,"distractors",7
6,1,3,0.3,1,0.422705,"distractors",8
6,1,0.7,1.5,0,0.551835,"distractors",9
6,1,0.7,0.3,1,0.392605,"distractors",10
6,1,0.3,0.7,1,0.4602,"distractors",11
6,1,1.5,3,0,0.746015,"distractors",12
6,1,3,1.5,0,0.4838,"distractors",13
6,1,0.7,3,0,0.2849,"distractors",14
6,1,0.3,1.5,0,0.31939,"distractors",15
6,1,0.3,0.7,1,0.461755,"distractors",16
6,1,3,0.3,1,0.35079,"distractors",17
6,1,0.7,0.3,0,0.700415,"distractors",18
6,1,3,0.7,0,0.30435,"distractors",19
6,1,0.3,3,0,0.517325,"distractors",20
6,1,1.5,0.7,0,0.435885,"distractors",21
6,1,0.7,1.5,1,0.39332,"distractors",22
6,1,1.5,3,0,0.23407,"distractors",23
6,1,1.5,0.3,1,0.288345,"distractors",24
6,1,0.3,0.7,1,2.43123,"distractors",25
6,1,1.5,3,1,1.012235,"distractors",26
6,1,3,0.3,1,0.469815,"distractors",27
6,1,0.3,3,0,0.63666,"distractors",28
6,1,0.7,3,0,0.2852,"distractors",29
6,1,3,1.5,1,0.34566,"distractors",30
6,1,0.3,1.5,1,1.284675,"distractors",31
6,1,1.5,0.7,1,0.377335,"distractors",32
6,1,3,0.7,1,0.645445,"distractors",33
6,1,0.7,1.5,0,0.29131,"distractors",34
6,1,0.7,0.3,0,0.900715,"distractors",35
6,1,1.5,0.3,1,0.358895,"distractors",36
6,1,1.5,0.7,1,0.28424,"distractors",37
6,1,1.5,3,0,0.83741,"distractors",38
6,1,0.3,1.5,0,0.356905,"distractors",39
6,1,3,0.3,1,0.43964,"distractors",40
6,1,0.7,1.5,0,0.278775,"distractors",41
6,1,0.3,0.7,0,0.000525,"distractors",42
6,1,0.7,3,0,0.377265,"distractors",43
6,1,0.3,3,0,0.26828,"distractors",44
6,1,0.7,0.3,1,0.292155,"distractors",45
6,1,3,0.7,1,0.435265,"distractors",46
6,1,3,1.5,1,0.36165,"distractors",47
6,1,1.5,0.3,0,0.301105,"distractors",48
6,1,1.5,0.7,1,1.361945,"distractors",49
6,1,0.3,3,0,0.65205,"distractors",50
6,1,3,0.7,1,2.30725,"distractors",51
6,1,0.3,0.7,0,0.408215,"distractors",52
6,1,1.5,0.3,1,0.952915,"distractors",53
6,1,0.7,1.5,0,0.734105,"distractors",54
6,1,0.7,3,0,0.82216,"distractors",55
6,1,3,0.3,1,0.74404,"distractors",56
6,1,1.5,3,1,0.82701,"distractors",57
6,1,0.7,0.3,1,0.91742,"distractors",58
6,1,3,1.5,1,0.50131,"distractors",59
6,1,0.3,1.5,0,0.93473,"distractors",60
6,1,0.3,3,0,0.855985,"distractors",61
6,1,1.5,0.7,1,0.804515,"distractors",62
6,1,3,0.7,0,1.48577,"distractors",63
6,1,0.3,0.7,0,0.750925,"distractors",64
6,1,3,1.5,0,0.37381,"distractors",65
6,1,3,0.3,1,0.986825,"distractors",66
6,1,0.7,1.5,0,2.177735,"distractors",67
6,1,0.3,1.5,0,1.501665,"distractors",68
6,1,1.5,3,1,0.40459,"distractors",69
6,1,0.7,3,0,0.9205,"distractors",70
6,1,1.5,0.3,0,1.286235,"distractors",71
6,1,0.7,0.3,1,0.66772,"distractors",72
6,1,1.5,0.7,1,0.217525,"distractors",73
6,1,0.3,1.5,1,0.25991,"distractors",74
6,1,1.5,3,0,0.302855,"distractors",75
6,1,1.5,0.3,1,0.20644,"distractors",76
6,1,0.7,1.5,0,1.36484,"distractors",77
6,1,0.3,3,0,0.552845,"distractors",78
6,1,0.7,3,0,0.381245,"distractors",79
6,1,3,0.7,1,0.301705,"distractors",80
6,1,0.7,0.3,0,4.510745,"distractors",81
6,1,3,1.5,1,0.246425,"distractors",82
6,1,0.3,0.7,0,0.64836,"distractors",83
6,1,3,0.3,1,0.30387,"distractors",84
6,1,0.3,3,0,0.22972,"distractors",85
6,1,0.3,0.7,1,0.271225,"distractors",86
6,1,0.7,3,0,0.18906,"distractors",87
6,1,1.5,3,1,0.22547,"distractors",88
6,1,0.7,0.3,1,0.311765,"distractors",89
6,1,3,0.3,1,0.27105,"distractors",90
6,1,1.5,0.7,1,1.046275,"distractors",91
6,1,0.3,1.5,0,1.26678,"distractors",92
6,1,3,1.5,0,0.238625,"distractors",93
6,1,0.7,1.5,0,0.311765,"distractors",94
6,1,1.5,0.3,1,0.37231,"distractors",95
6,1,3,0.7,1,0.34133,"distractors",96
6,1,0.7,0.3,1,1.09083,"distractors",97
6,1,0.3,0.7,1,0.341685,"distractors",98
6,1,1.5,0.7,1,0.06171,"distractors",99
6,1,3,0.7,1,0.263105,"distractors",100
6,1,0.7,1.5,0,0.341375,"distractors",101
6,1,0.3,1.5,0,4.401115,"distractors",102
6,1,1.5,0.3,1,0.64347,"distractors",103
6,1,1.5,3,0,0.634445,"distractors",104
6,1,3,0.3,1,0.273245,"distractors",105
6,1,3,1.5,0,2.0308,"distractors",106
6,1,0.3,3,0,0.334985,"distractors",107
6,1,0.7,3,0,0.23508,"distractors",108
6,1,1.5,0.7,1,0.306505,"distractors",109
6,1,3,1.5,0,0.42413,"distractors",110
6,1,3,0.7,1,0.271155,"distractors",111
6,1,1.5,3,0,1.07662,"distractors",112
6,1,1.5,0.3,1,0.274885,"distractors",113
6,1,0.3,0.7,0,0.257875,"distractors",114
6,1,0.7,1.5,0,0.268275,"distractors",115
6,1,0.7,0.3,1,0.37048,"distractors",116
6,1,0.3,3,0,0.291535,"distractors",117
6,1,0.3,1.5,0,3.42611,"distractors",118
6,1,3,0.3,1,0.623705,"distractors",119
6,1,0.7,3,0,0.234005,"distractors",120
6,1,3,0.3,1,0.52924,"distractors",121
6,1,0.3,1.5,0,0.27665,"distractors",122
6,1,1.5,3,1,1.137465,"distractors",123
6,1,1.5,0.3,0,0.25314,"distractors",124
6,1,0.3,0.7,1,0.684935,"distractors",125
6,1,1.5,0.7,1,0.31736,"distractors",126
6,1,0.7,3,0,0.918525,"distractors",127
6,1,0.3,3,0,0.230125,"distractors",128
6,1,0.7,0.3,0,1.222025,"distractors",129
6,1,3,0.7,0,0.417615,"distractors",130
6,1,3,1.5,1,0.38933,"distractors",131
6,1,0.7,1.5,0,0.359275,"distractors",132
6,1,0.3,3,1,1.177415,"distractors",133
6,1,0.3,0.7,0,0.26211,"distractors",134
6,1,0.7,0.3,1,0.29473,"distractors",135
6,1,0.3,1.5,0,0.302465,"distractors",136
6,1,0.7,3,0,0.284115,"distractors",137
6,1,1.5,0.7,1,0.24133,"distractors",138
6,1,3,1.5,1,0.30058,"distractors",139
6,1,3,0.7,0,0.259685,"distractors",140
6,1,3,0.3,1,1.579245,"distractors",141
6,1,1.5,3,1,0.81121,"distractors",142
6,1,1.5,0.3,0,1.286675,"distractors",143
6,1,0.7,1.5,1,1.671895,"distractors",144
6,1,1.5,0.7,0,1.40719,"distractors",145
6,1,1.5,0.3,1,0.45123,"distractors",146
6,1,0.3,0.7,1,0.296225,"distractors",147
6,1,3,0.3,1,0.23336,"distractors",148
6,1,1.5,3,0,0.29423,"distractors",149
6,1,0.3,3,1,1.485565,"distractors",150
6,1,0.3,1.5,0,0.855815,"distractors",151
6,1,0.7,3,0,0.24147,"distractors",152
6,1,0.7,1.5,1,0.34283,"distractors",153
6,1,0.7,0.3,1,0.26821,"distractors",154
6,1,3,0.7,0,0.274915,"distractors",155
6,1,3,1.5,0,0.434435,"distractors",156
6,1,3,1.5,0,0.911955,"distractors",157
6,1,0.3,1.5,0,0.556805,"distractors",158
6,1,0.3,3,0,1.384575,"distractors",159
6,1,1.5,0.7,1,0.374735,"distractors",160
6,1,0.7,3,0,0.31729,"distractors",161
6,1,0.7,1.5,0,0.385685,"distractors",162
6,1,3,0.7,0,0.336215,"distractors",163
6,1,1.5,0.3,1,0.283965,"distractors",164
6,1,0.3,0.7,1,1.546615,"distractors",165
6,1,0.7,0.3,1,0.3192,"distractors",166
6,1,3,0.3,0,0.37175,"distractors",167
6,1,1.5,3,0,0.302765,"distractors",168
6,1,1.5,3,0,0.344835,"distractors",169
6,1,0.3,3,0,0.32735,"distractors",170
6,1,0.7,0.3,1,0.95145,"distractors",171
6,1,1.5,0.7,1,0.34206,"distractors",172
6,1,1.5,0.3,1,0.33822,"distractors",173
6,1,0.3,0.7,1,1.12841,"distractors",174
6,1,3,0.7,1,0.517365,"distractors",175
6,1,0.3,1.5,0,0.23817,"distractors",176
6,1,0.7,3,0,0.26864,"distractors",177
6,1,3,1.5,0,0.620275,"distractors",178
6,1,0.7,1.5,0,0.30058,"distractors",179
6,1,3,0.3,1,0.22575,"distractors",180
6,1,3,1.5,1,0.33617,"distractors",181
6,1,0.7,0.3,1,0.67847,"distractors",182
6,1,0.3,3,1,0.51771,"distractors",183
6,1,1.5,0.3,1,0.456525,"distractors",184
6,1,0.3,0.7,1,0.784585,"distractors",185
6,1,0.7,1.5,1,1.490905,"distractors",186
6,1,1.5,3,0,0.29321,"distractors",187
6,1,3,0.3,1,0.260105,"distractors",188
6,1,1.5,0.7,0,0.30109,"distractors",189
6,1,0.7,3,0,0.26732,"distractors",190
6,1,3,0.7,1,0.759475,"distractors",191
6,1,0.3,1.5,0,0.979,"distractors",192
6,1,0.3,1.5,0,0.25123,"distractors",193
6,1,1.5,0.7,1,0.68603,"distractors",194
6,1,0.7,3,0,0.31145,"distractors",195
6,1,3,0.7,1,0.390165,"distractors",196
6,1,3,1.5,0,0.293965,"distractors",197
6,1,1.5,3,1,0.21061,"distractors",198
6,1,0.7,1.5,1,0.350865,"distractors",199
6,1,0.3,0.7,0,0.284195,"distractors",200
6,1,1.5,0.3,1,0.268835,"distractors",201
6,1,0.3,3,0,0.324365,"distractors",202
6,1,3,0.3,1,0.31752,"distractors",203
6,1,0.7,0.3,0,0.26918,"distractors",204
6,1,1.5,0.7,1,0.389395,"distractors",205
6,1,0.3,0.7,1,0.73962,"distractors",206
6,1,0.3,1.5,0,0.292005,"distractors",207
6,1,0.3,3,0,1.42651,"distractors",208
6,1,1.5,0.3,1,0.25726,"distractors",209
6,1,0.7,1.5,0,0.02424,"distractors",210
6,1,3,1.5,1,0.35903,"distractors",211
6,1,3,0.3,1,0.275125,"distractors",212
6,1,0.7,0.3,0,1.93661,"distractors",213
6,1,0.7,3,0,1.526105,"distractors",214
6,1,1.5,3,1,0.456235,"distractors",215
6,1,3,0.7,1,0.27224,"distractors",216
6,1,3,0.7,1,0.338285,"distractors",217
6,1,3,0.3,1,0.2891,"distractors",218
6,1,1.5,0.3,0,2.136495,"distractors",219
6,1,0.3,0.7,0,0.36474,"distractors",220
6,1,0.3,3,0,0.24065,"distractors",221
6,1,3,1.5,1,0.268025,"distractors",222
6,1,1.5,0.7,1,0.387195,"distractors",223
6,1,0.7,3,0,1.173635,"distractors",224
6,1,0.7,0.3,0,0.25401,"distractors",225
6,1,1.5,3,1,0.37463,"distractors",226
6,1,0.3,1.5,0,0.22449,"distractors",227
6,1,0.7,1.5,1,3.704135,"distractors",228
6,1,3,0.3,1,0.268145,"distractors",229
6,1,0.7,3,0,1.97966,"distractors",230
6,1,0.7,1.5,0,1.20176,"distractors",231
6,1,1.5,0.7,1,0.469245,"distractors",232
6,1,0.3,3,0,0.371085,"distractors",233
6,1,0.3,0.7,0,0.586105,"distractors",234
6,1,0.7,0.3,1,0.305195,"distractors",235
6,1,3,0.7,1,0.26657,"distractors",236
6,1,3,1.5,1,2.069555,"distractors",237
6,1,1.5,3,0,0.34702,"distractors",238
6,1,0.3,1.5,0,0.251585,"distractors",239
6,1,1.5,0.3,1,0.40961,"distractors",240
6,1,0.7,0.3,1,0.595865,"distractors",241
6,1,3,1.5,1,0.263105,"distractors",242
6,1,3,0.7,1,0.32356,"distractors",243
6,1,0.7,3,1,0.52038,"distractors",244
6,1,0.3,0.7,0,2.49771,"distractors",245
6,1,1.5,0.7,1,0.23583,"distractors",246
6,1,1.5,0.3,1,0.241825,"distractors",247
6,1,0.3,1.5,0,1.18705,"distractors",248
6,1,0.3,3,0,0.44435,"distractors",249
6,1,0.7,1.5,0,1.81083,"distractors",250
6,1,1.5,3,0,0.296335,"distractors",251
6,1,3,0.3,1,0.235,"distractors",252
6,1,0.3,1.5,0,0.26321,"distractors",253
6,1,0.3,3,1,1.53768,"distractors",254
6,1,3,0.3,1,0.87672,"distractors",255
6,1,3,0.7,1,4.17284,"distractors",256
6,1,1.5,0.7,0,0.58641,"distractors",257
6,1,1.5,0.3,1,0.674105,"distractors",258
6,1,0.7,1.5,0,1.99098,"distractors",259
6,1,0.7,3,1,0.256965,"distractors",260
6,1,1.5,3,1,7.646685,"distractors",261
6,1,0.7,0.3,1,0.26152,"distractors",262
6,1,0.3,0.7,0,0.300975,"distractors",263
6,1,3,1.5,0,0.50306,"distractors",264
6,1,1.5,0.3,0,1.68268,"distractors",265
6,1,0.3,3,0,0.20653,"distractors",266
6,1,3,0.7,1,0.234835,"distractors",267
6,1,0.3,0.7,1,0.98018,"distractors",268
6,1,3,1.5,1,0.394925,"distractors",269
6,1,1.5,3,1,0.15103,"distractors",270
6,1,3,0.3,1,0.609215,"distractors",271
6,1,0.7,0.3,0,1.0845,"distractors",272
6,1,0.7,1.5,0,1.822655,"distractors",273
6,1,1.5,0.7,1,0.3568,"distractors",274
6,1,0.3,1.5,0,0.3223,"distractors",275
6,1,0.7,3,0,0.23863,"distractors",276
6,1,1.5,0.3,1,0.30067,"distractors",277
6,1,0.3,1.5,0,0.33612,"distractors",278
6,1,0.7,0.3,1,0.277905,"distractors",279
6,1,3,1.5,1,0.475795,"distractors",280
6,1,0.3,3,0,0.379615,"distractors",281
6,1,3,0.3,0,0.470305,"distractors",282
6,1,3,0.7,1,0.47786,"distractors",283
6,1,0.3,0.7,0,0.35099,"distractors",284
6,1,1.5,0.7,1,0.480515,"distractors",285
6,1,0.7,1.5,0,0.23062,"distractors",286
6,1,1.5,3,1,0.27077,"distractors",287
6,1,0.7,3,0,1.03701,"distractors",288
6,1,3,0.7,1,0.194245,"distractors",289
6,1,1.5,0.7,0,0.36514,"distractors",290
6,1,1.5,0.3,1,0.127565,"distractors",291
6,1,0.3,3,0,0.356535,"distractors",292
6,1,3,0.3,1,1.032315,"distractors",293
6,1,3,1.5,0,0.223665,"distractors",294
6,1,0.7,3,1,1.24634,"distractors",295
6,1,0.3,1.5,1,1.214,"distractors",296
6,1,0.3,0.7,0,0.2409,"distractors",297
6,1,0.7,1.5,0,0.165455,"distractors",298
6,1,0.7,0.3,1,0.300145,"distractors",299
6,1,1.5,3,0,0.48176,"distractors",300
6,1,3,0.7,1,0.2133,"distractors",301
6,1,0.7,1.5,0,0.685025,"distractors",302
6,1,0.7,0.3,0,0.27736,"distractors",303
6,1,0.3,1.5,0,0.661,"distractors",304
6,1,3,0.3,1,0.21883,"distractors",305
6,1,1.5,3,0,0.28263,"distractors",306
6,1,1.5,0.7,1,0.386715,"distractors",307
6,1,0.3,3,0,0.947875,"distractors",308
6,1,0.3,0.7,1,0.190365,"distractors",309
6,1,0.7,3,0,0.66873,"distractors",310
6,1,1.5,0.3,1,0.21957,"distractors",311
6,1,3,1.5,1,0.319265,"distractors",312
6,1,0.3,1.5,0,0.224745,"distractors",313
6,1,0.7,3,1,0.4128,"distractors",314
6,1,0.7,0.3,1,0.437965,"distractors",315
6,1,3,1.5,0,0.89339,"distractors",316
6,1,3,0.7,0,0.40336,"distractors",317
6,1,3,0.3,1,0.303555,"distractors",318
6,1,1.5,0.7,1,0.83526,"distractors",319
6,1,0.3,3,0,0.3038,"distractors",320
6,1,0.3,0.7,1,0.74176,"distractors",321
6,1,0.7,1.5,1,1.363945,"distractors",322
6,1,1.5,3,1,0.28949,"distractors",323
6,1,1.5,0.3,1,1.670905,"distractors",324
6,1,0.3,0.7,1,4.894525,"distractors",325
6,1,1.5,0.7,1,0.7133,"distractors",326
6,1,3,0.3,1,0.20911,"distractors",327
6,1,0.3,1.5,0,0.190585,"distractors",328
6,1,0.3,3,0,0.03434,"distractors",329
6,1,0.7,3,0,0.45125,"distractors",330
6,1,3,0.7,1,0.62624,"distractors",331
6,1,1.5,0.3,1,2.3872,"distractors",332
6,1,0.7,1.5,0,0.44225,"distractors",333
6,1,0.7,0.3,1,1.804355,"distractors",334
6,1,1.5,3,1,1.219325,"distractors",335
6,1,3,1.5,1,0.5345,"distractors",336
6,1,3,1.5,1,0.615775,"distractors",337
6,1,0.3,0.7,0,0.21788,"distractors",338
6,1,1.5,0.3,0,0.22594,"distractors",339
6,1,3,0.7,0,0.275585,"distractors",340
6,1,0.3,1.5,0,0.202895,"distractors",341
6,1,0.7,1.5,1,1.27104,"distractors",342
6,1,3,0.3,1,0.273165,"distractors",343
6,1,0.3,3,0,0.223375,"distractors",344
6,1,0.7,0.3,1,0.211445,"distractors",345
6,1,1.5,3,1,0.27037,"distractors",346
6,1,1.5,0.7,1,0.088785,"distractors",347
6,1,0.7,3,0,1.230535,"distractors",348
6,1,0.7,1.5,0,0.294935,"distractors",349
6,1,3,0.7,1,0.54162,"distractors",350
6,1,0.7,0.3,1,0.37998,"distractors",351
6,1,1.5,0.3,1,1.957625,"distractors",352
6,1,1.5,3,0,0.868165,"distractors",353
6,1,1.5,0.7,1,0.269045,"distractors",354
6,1,0.3,3,1,0.39514,"distractors",355
6,1,0.3,0.7,1,1.00413,"distractors",356
6,1,3,1.5,0,0.75473,"distractors",357
6,1,3,0.3,1,1.454595,"distractors",358
6,1,0.3,1.5,0,0.96528,"distractors",359
6,1,0.7,3,0,0.295655,"distractors",360
7,1,0.7,0.3,1,0.485379047000038,"distractors",1
7,1,0.3,1.5,1,0.701242980000075,"distractors",2
7,1,0.7,1.5,0,0.734510800999942,"distractors",3
7,1,3,0.7,1,0.501623547999998,"distractors",4
7,1,1.5,3,0,0.467575362000048,"distractors",5
7,1,0.7,0.3,1,2.05077634199995,"distractors",6
7,1,3,0.7,1,0.451467913999977,"distractors",7
7,1,3,0.3,1,0.401694372999941,"distractors",8
7,1,0.7,3,1,1.98463763100006,"distractors",9
7,1,1.5,0.3,1,0.566063229000065,"distractors",10
7,1,0.3,3,0,0.402534408999941,"distractors",11
7,1,3,0.7,1,0.300789233999922,"distractors",12
7,1,1.5,0.7,1,0.301022087999968,"distractors",13
7,1,1.5,3,1,0.284043814000029,"distractors",14
7,1,3,0.3,1,0.251663016000066,"distractors",15
7,1,0.7,0.3,1,0.433757009000033,"distractors",16
7,1,3,1.5,0,1.06811419499991,"distractors",17
7,1,0.3,1.5,0,0.934878522999952,"distractors",18
7,1,1.5,0.7,1,0.200867749000054,"distractors",19
7,1,0.3,3,0,0.667766822999965,"distractors",20
7,1,1.5,3,0,0.601228488000061,"distractors",21
7,1,1.5,0.3,1,0.901667990000078,"distractors",22
7,1,3,1.5,1,0.433667420999996,"distractors",23
7,1,3,0.3,1,0.267897937999919,"distractors",24
7,1,0.7,1.5,0,1.88462858299999,"distractors",25
7,1,0.3,0.7,0,0.768070477000037,"distractors",26
7,1,1.5,0.7,1,0.934201212000062,"distractors",27
7,1,1.5,0.7,1,0.368138842999997,"distractors",28
7,1,0.3,3,0,0.701381530999925,"distractors",29
7,1,3,0.7,1,0.451320665000139,"distractors",30
7,1,3,1.5,1,0.51815302,"distractors",31
7,1,3,0.3,1,0.251458757999899,"distractors",32
7,1,0.3,0.7,0,0.43488678499989,"distractors",33
7,1,0.3,0.7,0,0.634989118000021,"distractors",34
7,1,3,0.7,1,0.251484292999976,"distractors",35
7,1,0.3,1.5,0,1.7182444550001,"distractors",36
7,1,1.5,3,1,0.401306551000062,"distractors",37
7,1,1.5,0.3,1,0.701943232000076,"distractors",38
7,1,0.3,0.7,0,0.601672207000092,"distractors",39
7,1,0.7,3,0,0.486171912999907,"distractors",40
7,1,0.7,0.3,1,0.368255365000095,"distractors",41
7,1,0.7,1.5,1,0.318243725999992,"distractors",42
7,1,0.7,1.5,0,0.551472569999987,"distractors",43
7,1,0.7,3,0,0.450576282999918,"distractors",44
7,1,0.7,3,0,0.434879606000095,"distractors",45
7,1,1.5,0.3,1,0.301356068000132,"distractors",46
7,1,0.3,3,0,0.751447927000072,"distractors",47
7,1,0.7,1.5,1,2.28458552200004,"distractors",48
7,1,0.3,1.5,0,0.368272590000061,"distractors",49
7,1,3,1.5,1,0.368131374000086,"distractors",50
7,1,0.3,3,1,0.41690946499989,"distractors",51
7,1,3,0.7,1,0.384309822999967,"distractors",52
7,1,3,1.5,1,0.684966132,"distractors",53
7,1,1.5,3,1,0.218182604000049,"distractors",54
7,1,0.7,0.3,1,0.335189046999858,"distractors",55
7,1,0.3,0.7,1,0.70158870299997,"distractors",56
7,1,0.3,0.7,0,0.718237201999955,"distractors",57
7,1,0.7,3,1,0.434336131000009,"distractors",58
7,1,1.5,0.7,1,0.284896400999969,"distractors",59
7,1,1.5,3,1,0.58690591200002,"distractors",60
7,1,3,1.5,0,0.334695997999916,"distractors",61
7,1,1.5,0.7,1,0.468224398000075,"distractors",62
7,1,3,0.3,1,0.30086108799992,"distractors",63
